block_loop,reps,leftLabelT,rightLabelT,instrText,introPic,leftLabel,rightLabel,thisN,thisTrialN,thisRepN,stims,correct_key,w,h,preBlockInstrKey.keys,preBlockInstrKey.rt,preBlockInstrKey.duration,key_resp.keys,key_resp.corr,key_resp.rt,key_resp.duration,trials_2.thisRepN,trials_2.thisTrialN,trials_2.thisN,trials_2.thisIndex,trials.thisRepN,trials.thisTrialN,trials.thisN,trials.thisIndex,thisRow.t,notes,preBlockInstr.started,intropic.started,preBlockInstrKey.started,preBlockInstr.stopped,trials_2.preBlockInstrKey.keys,trials_2.preBlockInstrKey.rt,trials_2.preBlockInstrKey.duration,trail.started,polygon.started,polygon.stopped,stim.started,key_resp.started,trail.stopped,trials.key_resp.keys,trials.key_resp.corr,trials.key_resp.rt,trials.key_resp.duration,participant,session,date,expName,expVersion,psychopyVersion,frameRate,expStart
IAT_block1.xlsx,1,胖图-按E键,瘦图-按I键,"接下来将进行第一部分测试。
请将你左手和右手的食指部分分别放在键盘的E键和I键上。
一会屏幕中央会先暂时出现一个十字，请注视它。
十字消失后会出现呈现一个词语
请在保证正确率的情况下尽快对其进行分类。
规则为：
胖图 - 按E键
瘦图 - 按I键
如果你已明白规则，请按空格开始测试。
如果有任何疑问，请联系实验员。",pic/intro1.png,pic/anjianl1.png,pic/anjianr1.png,0,0,0,pic/thin2.png,i,0.796,0.622,space,8.420047708,None,i,1,1.203303375,None,0,0,0,0,0,0,0,5,11.66009008,,0.319426375,0.325540833,2.996122458,11.61586712,space,8.420047708,None,11.64250192,11.66009008,12.16282904,12.61278946,12.61278946,13.82957529,i,1,1.203303375,None,21,1,2025-09-18_09h51.11.945,IAT_block_loop1after,,2025.1.1,None,2025-09-18 09h51.27.788015 +0800
IAT_block1.xlsx,1,胖图-按E键,瘦图-按I键,"接下来将进行第一部分测试。
请将你左手和右手的食指部分分别放在键盘的E键和I键上。
一会屏幕中央会先暂时出现一个十字，请注视它。
十字消失后会出现呈现一个词语
请在保证正确率的情况下尽快对其进行分类。
规则为：
胖图 - 按E键
瘦图 - 按I键
如果你已明白规则，请按空格开始测试。
如果有任何疑问，请联系实验员。",pic/intro1.png,pic/anjianl1.png,pic/anjianr1.png,1,1,0,pic/thin4.png,i,0.796,0.622,space,8.420047708,None,i,1,1.380532833,None,0,0,0,0,0,1,1,7,13.85374412,,,,,,,,,13.84950117,13.85374412,14.35001613,14.82955637,14.82955637,16.21331117,i,1,1.380532833,None,21,1,2025-09-18_09h51.11.945,IAT_block_loop1after,,2025.1.1,None,2025-09-18 09h51.27.788015 +0800
IAT_block1.xlsx,1,胖图-按E键,瘦图-按I键,"接下来将进行第一部分测试。
请将你左手和右手的食指部分分别放在键盘的E键和I键上。
一会屏幕中央会先暂时出现一个十字，请注视它。
十字消失后会出现呈现一个词语
请在保证正确率的情况下尽快对其进行分类。
规则为：
胖图 - 按E键
瘦图 - 按I键
如果你已明白规则，请按空格开始测试。
如果有任何疑问，请联系实验员。",pic/intro1.png,pic/anjianl1.png,pic/anjianr1.png,2,2,0,pic/fat4.png,e,0.796,0.528,space,8.420047708,None,e,1,0.693488124,None,0,0,0,0,0,2,2,3,16.24063775,,,,,,,,,16.23064012,16.24063775,16.74596287,17.19982862,17.19982862,17.896515,e,1,0.693488124,None,21,1,2025-09-18_09h51.11.945,IAT_block_loop1after,,2025.1.1,None,2025-09-18 09h51.27.788015 +0800
IAT_block1.xlsx,1,胖图-按E键,瘦图-按I键,"接下来将进行第一部分测试。
请将你左手和右手的食指部分分别放在键盘的E键和I键上。
一会屏幕中央会先暂时出现一个十字，请注视它。
十字消失后会出现呈现一个词语
请在保证正确率的情况下尽快对其进行分类。
规则为：
胖图 - 按E键
瘦图 - 按I键
如果你已明白规则，请按空格开始测试。
如果有任何疑问，请联系实验员。",pic/intro1.png,pic/anjianl1.png,pic/anjianr1.png,3,3,0,pic/thin1.png,i,0.796,0.488,space,8.420047708,None,i,1,0.685749083,None,0,0,0,0,0,3,3,4,17.91906779,,,,,,,,,17.91455371,17.91906779,18.41526542,18.89613908,18.89613908,19.583704,i,1,0.685749083,None,21,1,2025-09-18_09h51.11.945,IAT_block_loop1after,,2025.1.1,None,2025-09-18 09h51.27.788015 +0800
IAT_block1.xlsx,1,胖图-按E键,瘦图-按I键,"接下来将进行第一部分测试。
请将你左手和右手的食指部分分别放在键盘的E键和I键上。
一会屏幕中央会先暂时出现一个十字，请注视它。
十字消失后会出现呈现一个词语
请在保证正确率的情况下尽快对其进行分类。
规则为：
胖图 - 按E键
瘦图 - 按I键
如果你已明白规则，请按空格开始测试。
如果有任何疑问，请联系实验员。",pic/intro1.png,pic/anjianl1.png,pic/anjianr1.png,4,4,0,pic/fat1.png,e,0.796,0.528,space,8.420047708,None,e,1,0.834724958,None,0,0,0,0,0,4,4,0,19.60651058,,,,,,,,,19.60230329,19.60651058,20.09857933,20.58310262,20.58310262,21.42959075,e,1,0.834724958,None,21,1,2025-09-18_09h51.11.945,IAT_block_loop1after,,2025.1.1,None,2025-09-18 09h51.27.788015 +0800
IAT_block1.xlsx,1,胖图-按E键,瘦图-按I键,"接下来将进行第一部分测试。
请将你左手和右手的食指部分分别放在键盘的E键和I键上。
一会屏幕中央会先暂时出现一个十字，请注视它。
十字消失后会出现呈现一个词语
请在保证正确率的情况下尽快对其进行分类。
规则为：
胖图 - 按E键
瘦图 - 按I键
如果你已明白规则，请按空格开始测试。
如果有任何疑问，请联系实验员。",pic/intro1.png,pic/anjianl1.png,pic/anjianr1.png,5,5,0,pic/fat2.png,e,0.796,0.528,space,8.420047708,None,e,1,0.726601833,None,0,0,0,0,0,5,5,1,21.45532608,,,,,,,,,21.45112871,21.45532608,21.94855008,22.42938421,22.42938421,23.16283567,e,1,0.726601833,None,21,1,2025-09-18_09h51.11.945,IAT_block_loop1after,,2025.1.1,None,2025-09-18 09h51.27.788015 +0800
IAT_block1.xlsx,1,胖图-按E键,瘦图-按I键,"接下来将进行第一部分测试。
请将你左手和右手的食指部分分别放在键盘的E键和I键上。
一会屏幕中央会先暂时出现一个十字，请注视它。
十字消失后会出现呈现一个词语
请在保证正确率的情况下尽快对其进行分类。
规则为：
胖图 - 按E键
瘦图 - 按I键
如果你已明白规则，请按空格开始测试。
如果有任何疑问，请联系实验员。",pic/intro1.png,pic/anjianl1.png,pic/anjianr1.png,6,6,0,pic/thin3.png,i,0.796,0.622,space,8.420047708,None,i,1,0.721894791,None,0,0,0,0,0,6,6,6,23.18897821,,,,,,,,,23.18479533,23.18897821,23.68202787,24.14980825,24.14980825,24.87950562,i,1,0.721894791,None,21,1,2025-09-18_09h51.11.945,IAT_block_loop1after,,2025.1.1,None,2025-09-18 09h51.27.788015 +0800
IAT_block1.xlsx,1,胖图-按E键,瘦图-按I键,"接下来将进行第一部分测试。
请将你左手和右手的食指部分分别放在键盘的E键和I键上。
一会屏幕中央会先暂时出现一个十字，请注视它。
十字消失后会出现呈现一个词语
请在保证正确率的情况下尽快对其进行分类。
规则为：
胖图 - 按E键
瘦图 - 按I键
如果你已明白规则，请按空格开始测试。
如果有任何疑问，请联系实验员。",pic/intro1.png,pic/anjianl1.png,pic/anjianr1.png,7,7,0,pic/fat3.png,e,0.796,0.528,space,8.420047708,None,e,1,0.681360041,None,0,0,0,0,0,7,7,2,24.90525958,,,,,,,,,24.90090071,24.90525958,25.41273013,25.86625296,25.86625296,26.56322046,e,1,0.681360041,None,21,1,2025-09-18_09h51.11.945,IAT_block_loop1after,,2025.1.1,None,2025-09-18 09h51.27.788015 +0800
IAT_block1.xlsx,1,胖图-按E键,瘦图-按I键,"接下来将进行第一部分测试。
请将你左手和右手的食指部分分别放在键盘的E键和I键上。
一会屏幕中央会先暂时出现一个十字，请注视它。
十字消失后会出现呈现一个词语
请在保证正确率的情况下尽快对其进行分类。
规则为：
胖图 - 按E键
瘦图 - 按I键
如果你已明白规则，请按空格开始测试。
如果有任何疑问，请联系实验员。",pic/intro1.png,pic/anjianl1.png,pic/anjianr1.png,0,0,0,,,,,space,8.420047708,None,,,,,0,0,0,0,,,,,,,,,,,,,,,,,,,,,,,,21,1,2025-09-18_09h51.11.945,IAT_block_loop1after,,2025.1.1,None,2025-09-18 09h51.27.788015 +0800
IAT_block2.xlsx,1,期待词-按E键,中性词-按I键,"接下来将进行第二部分测试。
请将你左手和右手的食指部分分别放在键盘的E键和I键上。
该部分流程与之前相同，只是规则发生了轻微的变化
规则为：
期待词 - 按E键
中性词 - 按I键
请在保证正确率的情况下尽快对其进行分类。
如果你已明白规则，请按空格开始测试。
如果有任何疑问，请联系实验员。",pic/intro2.png,pic/anjianl2.png,pic/anjianr2.png,0,0,0,pic/want1.png,e,0.5225,0.261,space,4.617308166,None,i,0,1.362464916,None,0,1,1,1,0,0,0,0,34.20402337,,26.83849104,26.84566867,29.55009854,34.17950275,space,4.617308166,None,34.19955633,34.20402337,34.69855275,35.16587217,35.16587217,36.53007175,i,0,1.362464916,None,21,1,2025-09-18_09h51.11.945,IAT_block_loop1after,,2025.1.1,None,2025-09-18 09h51.27.788015 +0800
IAT_block2.xlsx,1,期待词-按E键,中性词-按I键,"接下来将进行第二部分测试。
请将你左手和右手的食指部分分别放在键盘的E键和I键上。
该部分流程与之前相同，只是规则发生了轻微的变化
规则为：
期待词 - 按E键
中性词 - 按I键
请在保证正确率的情况下尽快对其进行分类。
如果你已明白规则，请按空格开始测试。
如果有任何疑问，请联系实验员。",pic/intro2.png,pic/anjianl2.png,pic/anjianr2.png,1,1,0,pic/do3.png,i,0.5225,0.261,space,4.617308166,None,i,1,1.179979124,None,0,1,1,1,0,1,1,6,36.54829275,,,,,,,,,36.54360754,36.54829275,37.04595467,37.52923604,37.52923604,38.71331862,i,1,1.179979124,None,21,1,2025-09-18_09h51.11.945,IAT_block_loop1after,,2025.1.1,None,2025-09-18 09h51.27.788015 +0800
IAT_block2.xlsx,1,期待词-按E键,中性词-按I键,"接下来将进行第二部分测试。
请将你左手和右手的食指部分分别放在键盘的E键和I键上。
该部分流程与之前相同，只是规则发生了轻微的变化
规则为：
期待词 - 按E键
中性词 - 按I键
请在保证正确率的情况下尽快对其进行分类。
如果你已明白规则，请按空格开始测试。
如果有任何疑问，请联系实验员。",pic/intro2.png,pic/anjianl2.png,pic/anjianr2.png,2,2,0,pic/do1.png,i,0.5225,0.261,space,4.617308166,None,i,1,0.784480208,None,0,1,1,1,0,2,2,4,38.73089329,,,,,,,,,38.72611604,38.73089329,39.22921579,39.71271504,39.71271504,40.49955804,i,1,0.784480208,None,21,1,2025-09-18_09h51.11.945,IAT_block_loop1after,,2025.1.1,None,2025-09-18 09h51.27.788015 +0800
IAT_block2.xlsx,1,期待词-按E键,中性词-按I键,"接下来将进行第二部分测试。
请将你左手和右手的食指部分分别放在键盘的E键和I键上。
该部分流程与之前相同，只是规则发生了轻微的变化
规则为：
期待词 - 按E键
中性词 - 按I键
请在保证正确率的情况下尽快对其进行分类。
如果你已明白规则，请按空格开始测试。
如果有任何疑问，请联系实验员。",pic/intro2.png,pic/anjianl2.png,pic/anjianr2.png,3,3,0,pic/want4.png,e,0.5225,0.261,space,4.617308166,None,e,1,0.499283125,None,0,1,1,1,0,3,3,3,40.52022842,,,,,,,,,40.51587654,40.52022842,41.01533637,41.49590721,41.49590721,41.99633083,e,1,0.499283125,None,21,1,2025-09-18_09h51.11.945,IAT_block_loop1after,,2025.1.1,None,2025-09-18 09h51.27.788015 +0800
IAT_block2.xlsx,1,期待词-按E键,中性词-按I键,"接下来将进行第二部分测试。
请将你左手和右手的食指部分分别放在键盘的E键和I键上。
该部分流程与之前相同，只是规则发生了轻微的变化
规则为：
期待词 - 按E键
中性词 - 按I键
请在保证正确率的情况下尽快对其进行分类。
如果你已明白规则，请按空格开始测试。
如果有任何疑问，请联系实验员。",pic/intro2.png,pic/anjianl2.png,pic/anjianr2.png,4,4,0,pic/want3.png,e,0.5225,0.261,space,4.617308166,None,e,1,1.149302958,None,0,1,1,1,0,4,4,2,42.01819692,,,,,,,,,42.0138135,42.01819692,42.51513133,42.99578504,42.99578504,44.14638696,e,1,1.149302958,None,21,1,2025-09-18_09h51.11.945,IAT_block_loop1after,,2025.1.1,None,2025-09-18 09h51.27.788015 +0800
IAT_block2.xlsx,1,期待词-按E键,中性词-按I键,"接下来将进行第二部分测试。
请将你左手和右手的食指部分分别放在键盘的E键和I键上。
该部分流程与之前相同，只是规则发生了轻微的变化
规则为：
期待词 - 按E键
中性词 - 按I键
请在保证正确率的情况下尽快对其进行分类。
如果你已明白规则，请按空格开始测试。
如果有任何疑问，请联系实验员。",pic/intro2.png,pic/anjianl2.png,pic/anjianr2.png,5,5,0,pic/do2.png,i,0.5225,0.261,space,4.617308166,None,i,1,0.667141291,None,0,1,1,1,0,5,5,5,44.16502554,,,,,,,,,44.16067588,44.16502554,44.66256296,45.14592867,45.14592867,45.81629738,i,1,0.667141291,None,21,1,2025-09-18_09h51.11.945,IAT_block_loop1after,,2025.1.1,None,2025-09-18 09h51.27.788015 +0800
IAT_block2.xlsx,1,期待词-按E键,中性词-按I键,"接下来将进行第二部分测试。
请将你左手和右手的食指部分分别放在键盘的E键和I键上。
该部分流程与之前相同，只是规则发生了轻微的变化
规则为：
期待词 - 按E键
中性词 - 按I键
请在保证正确率的情况下尽快对其进行分类。
如果你已明白规则，请按空格开始测试。
如果有任何疑问，请联系实验员。",pic/intro2.png,pic/anjianl2.png,pic/anjianr2.png,6,6,0,pic/do4.png,i,0.5225,0.261,space,4.617308166,None,i,1,0.853846957,None,0,1,1,1,0,6,6,7,45.8353025,,,,,,,,,45.83050462,45.8353025,46.34584383,46.81213146,46.81213146,47.67936313,i,1,0.853846957,None,21,1,2025-09-18_09h51.11.945,IAT_block_loop1after,,2025.1.1,None,2025-09-18 09h51.27.788015 +0800
IAT_block2.xlsx,1,期待词-按E键,中性词-按I键,"接下来将进行第二部分测试。
请将你左手和右手的食指部分分别放在键盘的E键和I键上。
该部分流程与之前相同，只是规则发生了轻微的变化
规则为：
期待词 - 按E键
中性词 - 按I键
请在保证正确率的情况下尽快对其进行分类。
如果你已明白规则，请按空格开始测试。
如果有任何疑问，请联系实验员。",pic/intro2.png,pic/anjianl2.png,pic/anjianr2.png,7,7,0,pic/want2.png,e,0.5225,0.261,space,4.617308166,None,e,1,0.666677416,None,0,1,1,1,0,7,7,1,47.69791033,,,,,,,,,47.69352308,47.69791033,48.19574738,48.67922412,48.67922412,49.34953862,e,1,0.666677416,None,21,1,2025-09-18_09h51.11.945,IAT_block_loop1after,,2025.1.1,None,2025-09-18 09h51.27.788015 +0800
IAT_block2.xlsx,1,期待词-按E键,中性词-按I键,"接下来将进行第二部分测试。
请将你左手和右手的食指部分分别放在键盘的E键和I键上。
该部分流程与之前相同，只是规则发生了轻微的变化
规则为：
期待词 - 按E键
中性词 - 按I键
请在保证正确率的情况下尽快对其进行分类。
如果你已明白规则，请按空格开始测试。
如果有任何疑问，请联系实验员。",pic/intro2.png,pic/anjianl2.png,pic/anjianr2.png,1,1,0,,,,,space,4.617308166,None,,,,,0,1,1,1,,,,,,,,,,,,,,,,,,,,,,,,21,1,2025-09-18_09h51.11.945,IAT_block_loop1after,,2025.1.1,None,2025-09-18 09h51.27.788015 +0800
IAT_block34.xlsx,1,胖图或期待词-按E键,瘦图或者中性词-按I键,"接下来将进行第三部分测试。
请将你左手和右手的食指部分分别放在键盘的E键和I键上。
该部分流程与之前相同，只是规则发生了轻微的变化
规则为：
胖图 或 期待词 - 按E键
瘦图 或 中性词 - 按I键
请在保证正确率的情况下尽快对其进行分类。
如果你已明白规则，请按空格开始测试。
如果有任何疑问，请联系实验员。",pic/intro3.png,pic/anjianl3.png,pic/anjianr3.png,0,0,0,pic/do4.png,i,0.5225,0.261,space,6.634880957,None,i,1,0.875065416,None,0,2,2,2,0,0,0,7,59.02304579,,49.60621775,49.61351704,52.34580525,58.99631096,space,6.634880957,None,59.01859633,59.02304579,59.52907729,59.98245746,59.98245746,60.86259842,i,1,0.875065416,None,21,1,2025-09-18_09h51.11.945,IAT_block_loop1after,,2025.1.1,None,2025-09-18 09h51.27.788015 +0800
IAT_block34.xlsx,1,胖图或期待词-按E键,瘦图或者中性词-按I键,"接下来将进行第三部分测试。
请将你左手和右手的食指部分分别放在键盘的E键和I键上。
该部分流程与之前相同，只是规则发生了轻微的变化
规则为：
胖图 或 期待词 - 按E键
瘦图 或 中性词 - 按I键
请在保证正确率的情况下尽快对其进行分类。
如果你已明白规则，请按空格开始测试。
如果有任何疑问，请联系实验员。",pic/intro3.png,pic/anjianl3.png,pic/anjianr3.png,1,1,0,pic/do3.png,i,0.5225,0.261,space,6.634880957,None,i,1,1.304193125,None,0,2,2,2,0,1,1,6,60.88407521,,,,,,,,,60.87975221,60.88407521,61.39579279,61.86232892,61.86232892,63.1792625,i,1,1.304193125,None,21,1,2025-09-18_09h51.11.945,IAT_block_loop1after,,2025.1.1,None,2025-09-18 09h51.27.788015 +0800
IAT_block34.xlsx,1,胖图或期待词-按E键,瘦图或者中性词-按I键,"接下来将进行第三部分测试。
请将你左手和右手的食指部分分别放在键盘的E键和I键上。
该部分流程与之前相同，只是规则发生了轻微的变化
规则为：
胖图 或 期待词 - 按E键
瘦图 或 中性词 - 按I键
请在保证正确率的情况下尽快对其进行分类。
如果你已明白规则，请按空格开始测试。
如果有任何疑问，请联系实验员。",pic/intro3.png,pic/anjianl3.png,pic/anjianr3.png,2,2,0,pic/fat1.png,e,0.796,0.528,space,6.634880957,None,e,1,1.058496749,None,0,2,2,2,0,2,2,8,63.20501554,,,,,,,,,63.2008535,63.20501554,63.69861017,64.17892742,64.17892742,65.24589546,e,1,1.058496749,None,21,1,2025-09-18_09h51.11.945,IAT_block_loop1after,,2025.1.1,None,2025-09-18 09h51.27.788015 +0800
IAT_block34.xlsx,1,胖图或期待词-按E键,瘦图或者中性词-按I键,"接下来将进行第三部分测试。
请将你左手和右手的食指部分分别放在键盘的E键和I键上。
该部分流程与之前相同，只是规则发生了轻微的变化
规则为：
胖图 或 期待词 - 按E键
瘦图 或 中性词 - 按I键
请在保证正确率的情况下尽快对其进行分类。
如果你已明白规则，请按空格开始测试。
如果有任何疑问，请联系实验员。",pic/intro3.png,pic/anjianl3.png,pic/anjianr3.png,3,3,0,pic/do1.png,i,0.5225,0.261,space,6.634880957,None,i,1,0.737564999,None,0,2,2,2,0,3,3,4,65.26707962,,,,,,,,,65.262587,65.26707962,65.76509575,66.245766,66.245766,66.995934,i,1,0.737564999,None,21,1,2025-09-18_09h51.11.945,IAT_block_loop1after,,2025.1.1,None,2025-09-18 09h51.27.788015 +0800
IAT_block34.xlsx,1,胖图或期待词-按E键,瘦图或者中性词-按I键,"接下来将进行第三部分测试。
请将你左手和右手的食指部分分别放在键盘的E键和I键上。
该部分流程与之前相同，只是规则发生了轻微的变化
规则为：
胖图 或 期待词 - 按E键
瘦图 或 中性词 - 按I键
请在保证正确率的情况下尽快对其进行分类。
如果你已明白规则，请按空格开始测试。
如果有任何疑问，请联系实验员。",pic/intro3.png,pic/anjianl3.png,pic/anjianr3.png,4,4,0,pic/thin2.png,i,0.796,0.622,space,6.634880957,None,i,1,0.750617708,None,0,2,2,2,0,4,4,13,67.02258975,,,,,,,,,67.01839921,67.02258975,67.52913196,67.99574858,67.99574858,68.7499925,i,1,0.750617708,None,21,1,2025-09-18_09h51.11.945,IAT_block_loop1after,,2025.1.1,None,2025-09-18 09h51.27.788015 +0800
IAT_block34.xlsx,1,胖图或期待词-按E键,瘦图或者中性词-按I键,"接下来将进行第三部分测试。
请将你左手和右手的食指部分分别放在键盘的E键和I键上。
该部分流程与之前相同，只是规则发生了轻微的变化
规则为：
胖图 或 期待词 - 按E键
瘦图 或 中性词 - 按I键
请在保证正确率的情况下尽快对其进行分类。
如果你已明白规则，请按空格开始测试。
如果有任何疑问，请联系实验员。",pic/intro3.png,pic/anjianl3.png,pic/anjianr3.png,5,5,0,pic/thin3.png,i,0.796,0.622,space,6.634880957,None,i,1,0.743852833,None,0,2,2,2,0,5,5,14,68.77737537,,,,,,,,,68.77308275,68.77737537,69.27908117,69.76240721,69.76240721,70.51264146,i,1,0.743852833,None,21,1,2025-09-18_09h51.11.945,IAT_block_loop1after,,2025.1.1,None,2025-09-18 09h51.27.788015 +0800
IAT_block34.xlsx,1,胖图或期待词-按E键,瘦图或者中性词-按I键,"接下来将进行第三部分测试。
请将你左手和右手的食指部分分别放在键盘的E键和I键上。
该部分流程与之前相同，只是规则发生了轻微的变化
规则为：
胖图 或 期待词 - 按E键
瘦图 或 中性词 - 按I键
请在保证正确率的情况下尽快对其进行分类。
如果你已明白规则，请按空格开始测试。
如果有任何疑问，请联系实验员。",pic/intro3.png,pic/anjianl3.png,pic/anjianr3.png,6,6,0,pic/thin1.png,i,0.796,0.488,space,6.634880957,None,i,1,0.636793832,None,0,2,2,2,0,6,6,12,70.53586671,,,,,,,,,70.53151233,70.53586671,71.03183733,71.49942046,71.49942046,72.14586996,i,1,0.636793832,None,21,1,2025-09-18_09h51.11.945,IAT_block_loop1after,,2025.1.1,None,2025-09-18 09h51.27.788015 +0800
IAT_block34.xlsx,1,胖图或期待词-按E键,瘦图或者中性词-按I键,"接下来将进行第三部分测试。
请将你左手和右手的食指部分分别放在键盘的E键和I键上。
该部分流程与之前相同，只是规则发生了轻微的变化
规则为：
胖图 或 期待词 - 按E键
瘦图 或 中性词 - 按I键
请在保证正确率的情况下尽快对其进行分类。
如果你已明白规则，请按空格开始测试。
如果有任何疑问，请联系实验员。",pic/intro3.png,pic/anjianl3.png,pic/anjianr3.png,7,7,0,pic/thin4.png,i,0.796,0.622,space,6.634880957,None,i,1,0.693445999,None,0,2,2,2,0,7,7,15,72.17209212,,,,,,,,,72.16792358,72.17209212,72.665033,73.14573604,73.14573604,73.84583538,i,1,0.693445999,None,21,1,2025-09-18_09h51.11.945,IAT_block_loop1after,,2025.1.1,None,2025-09-18 09h51.27.788015 +0800
IAT_block34.xlsx,1,胖图或期待词-按E键,瘦图或者中性词-按I键,"接下来将进行第三部分测试。
请将你左手和右手的食指部分分别放在键盘的E键和I键上。
该部分流程与之前相同，只是规则发生了轻微的变化
规则为：
胖图 或 期待词 - 按E键
瘦图 或 中性词 - 按I键
请在保证正确率的情况下尽快对其进行分类。
如果你已明白规则，请按空格开始测试。
如果有任何疑问，请联系实验员。",pic/intro3.png,pic/anjianl3.png,pic/anjianr3.png,8,8,0,pic/want4.png,e,0.5225,0.261,space,6.634880957,None,e,1,1.064589208,None,0,2,2,2,0,8,8,3,73.8660425,,,,,,,,,73.86165096,73.8660425,74.36248488,74.84547312,74.84547312,75.91299721,e,1,1.064589208,None,21,1,2025-09-18_09h51.11.945,IAT_block_loop1after,,2025.1.1,None,2025-09-18 09h51.27.788015 +0800
IAT_block34.xlsx,1,胖图或期待词-按E键,瘦图或者中性词-按I键,"接下来将进行第三部分测试。
请将你左手和右手的食指部分分别放在键盘的E键和I键上。
该部分流程与之前相同，只是规则发生了轻微的变化
规则为：
胖图 或 期待词 - 按E键
瘦图 或 中性词 - 按I键
请在保证正确率的情况下尽快对其进行分类。
如果你已明白规则，请按空格开始测试。
如果有任何疑问，请联系实验员。",pic/intro3.png,pic/anjianl3.png,pic/anjianr3.png,9,9,0,pic/fat2.png,e,0.796,0.528,space,6.634880957,None,e,1,0.892609249,None,0,2,2,2,0,9,9,9,75.93467779,,,,,,,,,75.93042133,75.93467779,76.43168112,76.91239137,76.91239137,77.81251204,e,1,0.892609249,None,21,1,2025-09-18_09h51.11.945,IAT_block_loop1after,,2025.1.1,None,2025-09-18 09h51.27.788015 +0800
IAT_block34.xlsx,1,胖图或期待词-按E键,瘦图或者中性词-按I键,"接下来将进行第三部分测试。
请将你左手和右手的食指部分分别放在键盘的E键和I键上。
该部分流程与之前相同，只是规则发生了轻微的变化
规则为：
胖图 或 期待词 - 按E键
瘦图 或 中性词 - 按I键
请在保证正确率的情况下尽快对其进行分类。
如果你已明白规则，请按空格开始测试。
如果有任何疑问，请联系实验员。",pic/intro3.png,pic/anjianl3.png,pic/anjianr3.png,10,10,0,pic/want3.png,e,0.5225,0.261,space,6.634880957,None,e,1,1.239657541,None,0,2,2,2,0,10,10,2,77.83249104,,,,,,,,,77.82815554,77.83249104,78.32897454,78.81224825,78.81224825,80.06256767,e,1,1.239657541,None,21,1,2025-09-18_09h51.11.945,IAT_block_loop1after,,2025.1.1,None,2025-09-18 09h51.27.788015 +0800
IAT_block34.xlsx,1,胖图或期待词-按E键,瘦图或者中性词-按I键,"接下来将进行第三部分测试。
请将你左手和右手的食指部分分别放在键盘的E键和I键上。
该部分流程与之前相同，只是规则发生了轻微的变化
规则为：
胖图 或 期待词 - 按E键
瘦图 或 中性词 - 按I键
请在保证正确率的情况下尽快对其进行分类。
如果你已明白规则，请按空格开始测试。
如果有任何疑问，请联系实验员。",pic/intro3.png,pic/anjianl3.png,pic/anjianr3.png,11,11,0,pic/want1.png,e,0.5225,0.261,space,6.634880957,None,e,1,1.518862291,None,0,2,2,2,0,11,11,0,80.08046917,,,,,,,,,80.07612783,80.08046917,80.57888429,81.04893342,81.04893342,82.57909058,e,1,1.518862291,None,21,1,2025-09-18_09h51.11.945,IAT_block_loop1after,,2025.1.1,None,2025-09-18 09h51.27.788015 +0800
IAT_block34.xlsx,1,胖图或期待词-按E键,瘦图或者中性词-按I键,"接下来将进行第三部分测试。
请将你左手和右手的食指部分分别放在键盘的E键和I键上。
该部分流程与之前相同，只是规则发生了轻微的变化
规则为：
胖图 或 期待词 - 按E键
瘦图 或 中性词 - 按I键
请在保证正确率的情况下尽快对其进行分类。
如果你已明白规则，请按空格开始测试。
如果有任何疑问，请联系实验员。",pic/intro3.png,pic/anjianl3.png,pic/anjianr3.png,12,12,0,pic/want2.png,e,0.5225,0.261,space,6.634880957,None,e,1,0.509214249,None,0,2,2,2,0,12,12,1,82.60048863,,,,,,,,,82.59602729,82.60048863,83.11230913,83.56557512,83.56557512,84.07934242,e,1,0.509214249,None,21,1,2025-09-18_09h51.11.945,IAT_block_loop1after,,2025.1.1,None,2025-09-18 09h51.27.788015 +0800
IAT_block34.xlsx,1,胖图或期待词-按E键,瘦图或者中性词-按I键,"接下来将进行第三部分测试。
请将你左手和右手的食指部分分别放在键盘的E键和I键上。
该部分流程与之前相同，只是规则发生了轻微的变化
规则为：
胖图 或 期待词 - 按E键
瘦图 或 中性词 - 按I键
请在保证正确率的情况下尽快对其进行分类。
如果你已明白规则，请按空格开始测试。
如果有任何疑问，请联系实验员。",pic/intro3.png,pic/anjianl3.png,pic/anjianr3.png,13,13,0,pic/fat4.png,e,0.796,0.528,space,6.634880957,None,e,1,0.480985166,None,0,2,2,2,0,13,13,11,84.10424183,,,,,,,,,84.10011538,84.10424183,84.61231729,85.07872258,85.07872258,85.56279646,e,1,0.480985166,None,21,1,2025-09-18_09h51.11.945,IAT_block_loop1after,,2025.1.1,None,2025-09-18 09h51.27.788015 +0800
IAT_block34.xlsx,1,胖图或期待词-按E键,瘦图或者中性词-按I键,"接下来将进行第三部分测试。
请将你左手和右手的食指部分分别放在键盘的E键和I键上。
该部分流程与之前相同，只是规则发生了轻微的变化
规则为：
胖图 或 期待词 - 按E键
瘦图 或 中性词 - 按I键
请在保证正确率的情况下尽快对其进行分类。
如果你已明白规则，请按空格开始测试。
如果有任何疑问，请联系实验员。",pic/intro3.png,pic/anjianl3.png,pic/anjianr3.png,14,14,0,pic/do2.png,i,0.5225,0.261,space,6.634880957,None,i,1,0.773777499,None,0,2,2,2,0,14,14,5,85.58295804,,,,,,,,,85.578625,85.58295804,86.09554633,86.54887592,86.54887592,87.32913304,i,1,0.773777499,None,21,1,2025-09-18_09h51.11.945,IAT_block_loop1after,,2025.1.1,None,2025-09-18 09h51.27.788015 +0800
IAT_block34.xlsx,1,胖图或期待词-按E键,瘦图或者中性词-按I键,"接下来将进行第三部分测试。
请将你左手和右手的食指部分分别放在键盘的E键和I键上。
该部分流程与之前相同，只是规则发生了轻微的变化
规则为：
胖图 或 期待词 - 按E键
瘦图 或 中性词 - 按I键
请在保证正确率的情况下尽快对其进行分类。
如果你已明白规则，请按空格开始测试。
如果有任何疑问，请联系实验员。",pic/intro3.png,pic/anjianl3.png,pic/anjianr3.png,15,15,0,pic/fat3.png,e,0.796,0.528,space,6.634880957,None,e,1,0.653907958,None,0,2,2,2,0,15,15,10,87.35538529,,,,,,,,,87.35095675,87.35538529,87.86212883,88.32869533,88.32869533,88.99574558,e,1,0.653907958,None,21,1,2025-09-18_09h51.11.945,IAT_block_loop1after,,2025.1.1,None,2025-09-18 09h51.27.788015 +0800
IAT_block34.xlsx,1,胖图或期待词-按E键,瘦图或者中性词-按I键,"接下来将进行第三部分测试。
请将你左手和右手的食指部分分别放在键盘的E键和I键上。
该部分流程与之前相同，只是规则发生了轻微的变化
规则为：
胖图 或 期待词 - 按E键
瘦图 或 中性词 - 按I键
请在保证正确率的情况下尽快对其进行分类。
如果你已明白规则，请按空格开始测试。
如果有任何疑问，请联系实验员。",pic/intro3.png,pic/anjianl3.png,pic/anjianr3.png,2,2,0,,,,,space,6.634880957,None,,,,,0,2,2,2,,,,,,,,,,,,,,,,,,,,,,,,21,1,2025-09-18_09h51.11.945,IAT_block_loop1after,,2025.1.1,None,2025-09-18 09h51.27.788015 +0800
IAT_block34.xlsx,1,胖图或期待词-按E键,瘦图或者中性词-按I键,"接下来将进行第四部分测试。
请将你左手和右手的食指部分分别放在键盘的E键和I键上。
该部分流程与刚才的完全相同，规则同样为：
胖图 或 期待词 - 按E键
瘦图 或 中性词 - 按I键
请在保证正确率的情况下尽快对其进行分类。
如果你已明白规则，请按空格开始测试。
如果有任何疑问，请联系实验员。",pic/intro4.png,pic/anjianl4.png,pic/anjianr4.png,0,0,0,pic/do4.png,i,0.5225,0.261,space,2.680542999,None,i,1,0.847949791,None,0,3,3,3,0,0,0,7,94.7069615,,89.22027367,89.22740458,91.98292587,94.67943529,space,2.680542999,None,94.70263404,94.7069615,95.19832917,95.66549958,95.66549958,96.52934467,i,1,0.847949791,None,21,1,2025-09-18_09h51.11.945,IAT_block_loop1after,,2025.1.1,None,2025-09-18 09h51.27.788015 +0800
IAT_block34.xlsx,1,胖图或期待词-按E键,瘦图或者中性词-按I键,"接下来将进行第四部分测试。
请将你左手和右手的食指部分分别放在键盘的E键和I键上。
该部分流程与刚才的完全相同，规则同样为：
胖图 或 期待词 - 按E键
瘦图 或 中性词 - 按I键
请在保证正确率的情况下尽快对其进行分类。
如果你已明白规则，请按空格开始测试。
如果有任何疑问，请联系实验员。",pic/intro4.png,pic/anjianl4.png,pic/anjianr4.png,1,1,0,pic/do1.png,i,0.5225,0.261,space,2.680542999,None,i,1,0.503470791,None,0,3,3,3,0,1,1,4,96.55384921,,,,,,,,,96.54951208,96.55384921,97.04827825,97.52884321,97.52884321,98.0461215,i,1,0.503470791,None,21,1,2025-09-18_09h51.11.945,IAT_block_loop1after,,2025.1.1,None,2025-09-18 09h51.27.788015 +0800
IAT_block34.xlsx,1,胖图或期待词-按E键,瘦图或者中性词-按I键,"接下来将进行第四部分测试。
请将你左手和右手的食指部分分别放在键盘的E键和I键上。
该部分流程与刚才的完全相同，规则同样为：
胖图 或 期待词 - 按E键
瘦图 或 中性词 - 按I键
请在保证正确率的情况下尽快对其进行分类。
如果你已明白规则，请按空格开始测试。
如果有任何疑问，请联系实验员。",pic/intro4.png,pic/anjianl4.png,pic/anjianr4.png,2,2,0,pic/thin2.png,i,0.796,0.622,space,2.680542999,None,i,1,0.797606916,None,0,3,3,3,0,2,2,13,98.07235437,,,,,,,,,98.06813279,98.07235437,98.56490121,99.03262146,99.03262146,99.84605983,i,1,0.797606916,None,21,1,2025-09-18_09h51.11.945,IAT_block_loop1after,,2025.1.1,None,2025-09-18 09h51.27.788015 +0800
IAT_block34.xlsx,1,胖图或期待词-按E键,瘦图或者中性词-按I键,"接下来将进行第四部分测试。
请将你左手和右手的食指部分分别放在键盘的E键和I键上。
该部分流程与刚才的完全相同，规则同样为：
胖图 或 期待词 - 按E键
瘦图 或 中性词 - 按I键
请在保证正确率的情况下尽快对其进行分类。
如果你已明白规则，请按空格开始测试。
如果有任何疑问，请联系实验员。",pic/intro4.png,pic/anjianl4.png,pic/anjianr4.png,3,3,0,pic/want2.png,e,0.5225,0.261,space,2.680542999,None,e,1,0.683810625,None,0,3,3,3,0,3,3,1,99.86643187,,,,,,,,,99.86204167,99.86643187,100.364928,100.8455263,100.8455263,101.5326619,e,1,0.683810625,None,21,1,2025-09-18_09h51.11.945,IAT_block_loop1after,,2025.1.1,None,2025-09-18 09h51.27.788015 +0800
IAT_block34.xlsx,1,胖图或期待词-按E键,瘦图或者中性词-按I键,"接下来将进行第四部分测试。
请将你左手和右手的食指部分分别放在键盘的E键和I键上。
该部分流程与刚才的完全相同，规则同样为：
胖图 或 期待词 - 按E键
瘦图 或 中性词 - 按I键
请在保证正确率的情况下尽快对其进行分类。
如果你已明白规则，请按空格开始测试。
如果有任何疑问，请联系实验员。",pic/intro4.png,pic/anjianl4.png,pic/anjianr4.png,4,4,0,pic/want1.png,e,0.5225,0.261,space,2.680542999,None,e,1,0.664815958,None,0,3,3,3,0,4,4,0,101.5534547,,,,,,,,,101.5490957,101.5534547,102.0621701,102.5454137,102.5454137,103.2128313,e,1,0.664815958,None,21,1,2025-09-18_09h51.11.945,IAT_block_loop1after,,2025.1.1,None,2025-09-18 09h51.27.788015 +0800
IAT_block34.xlsx,1,胖图或期待词-按E键,瘦图或者中性词-按I键,"接下来将进行第四部分测试。
请将你左手和右手的食指部分分别放在键盘的E键和I键上。
该部分流程与刚才的完全相同，规则同样为：
胖图 或 期待词 - 按E键
瘦图 或 中性词 - 按I键
请在保证正确率的情况下尽快对其进行分类。
如果你已明白规则，请按空格开始测试。
如果有任何疑问，请联系实验员。",pic/intro4.png,pic/anjianl4.png,pic/anjianr4.png,5,5,0,pic/do3.png,i,0.5225,0.261,space,2.680542999,None,i,1,0.586353374,None,0,3,3,3,0,5,5,6,103.232227,,,,,,,,,103.2278536,103.232227,103.7315024,104.1987688,104.1987688,104.7956446,i,1,0.586353374,None,21,1,2025-09-18_09h51.11.945,IAT_block_loop1after,,2025.1.1,None,2025-09-18 09h51.27.788015 +0800
IAT_block34.xlsx,1,胖图或期待词-按E键,瘦图或者中性词-按I键,"接下来将进行第四部分测试。
请将你左手和右手的食指部分分别放在键盘的E键和I键上。
该部分流程与刚才的完全相同，规则同样为：
胖图 或 期待词 - 按E键
瘦图 或 中性词 - 按I键
请在保证正确率的情况下尽快对其进行分类。
如果你已明白规则，请按空格开始测试。
如果有任何疑问，请联系实验员。",pic/intro4.png,pic/anjianl4.png,pic/anjianr4.png,6,6,0,pic/thin1.png,i,0.796,0.488,space,2.680542999,None,i,1,0.675696666,None,0,3,3,3,0,6,6,12,104.8217738,,,,,,,,,104.8173539,104.8217738,105.3149295,105.7823439,105.7823439,106.4627359,i,1,0.675696666,None,21,1,2025-09-18_09h51.11.945,IAT_block_loop1after,,2025.1.1,None,2025-09-18 09h51.27.788015 +0800
IAT_block34.xlsx,1,胖图或期待词-按E键,瘦图或者中性词-按I键,"接下来将进行第四部分测试。
请将你左手和右手的食指部分分别放在键盘的E键和I键上。
该部分流程与刚才的完全相同，规则同样为：
胖图 或 期待词 - 按E键
瘦图 或 中性词 - 按I键
请在保证正确率的情况下尽快对其进行分类。
如果你已明白规则，请按空格开始测试。
如果有任何疑问，请联系实验员。",pic/intro4.png,pic/anjianl4.png,pic/anjianr4.png,7,7,0,pic/thin4.png,i,0.796,0.622,space,2.680542999,None,i,1,0.571898916,None,0,3,3,3,0,7,7,15,106.4886975,,,,,,,,,106.4844805,106.4886975,106.9814783,107.4621542,107.4621542,108.0456513,i,1,0.571898916,None,21,1,2025-09-18_09h51.11.945,IAT_block_loop1after,,2025.1.1,None,2025-09-18 09h51.27.788015 +0800
IAT_block34.xlsx,1,胖图或期待词-按E键,瘦图或者中性词-按I键,"接下来将进行第四部分测试。
请将你左手和右手的食指部分分别放在键盘的E键和I键上。
该部分流程与刚才的完全相同，规则同样为：
胖图 或 期待词 - 按E键
瘦图 或 中性词 - 按I键
请在保证正确率的情况下尽快对其进行分类。
如果你已明白规则，请按空格开始测试。
如果有任何疑问，请联系实验员。",pic/intro4.png,pic/anjianl4.png,pic/anjianr4.png,8,8,0,pic/fat1.png,e,0.796,0.528,space,2.680542999,None,e,1,0.612555791,None,0,3,3,3,0,8,8,8,108.0714997,,,,,,,,,108.0673536,108.0714997,108.564793,109.0323482,109.0323482,109.6461748,e,1,0.612555791,None,21,1,2025-09-18_09h51.11.945,IAT_block_loop1after,,2025.1.1,None,2025-09-18 09h51.27.788015 +0800
IAT_block34.xlsx,1,胖图或期待词-按E键,瘦图或者中性词-按I键,"接下来将进行第四部分测试。
请将你左手和右手的食指部分分别放在键盘的E键和I键上。
该部分流程与刚才的完全相同，规则同样为：
胖图 或 期待词 - 按E键
瘦图 或 中性词 - 按I键
请在保证正确率的情况下尽快对其进行分类。
如果你已明白规则，请按空格开始测试。
如果有任何疑问，请联系实验员。",pic/intro4.png,pic/anjianl4.png,pic/anjianr4.png,9,9,0,pic/thin3.png,i,0.796,0.622,space,2.680542999,None,i,1,0.620473166,None,0,3,3,3,0,9,9,14,109.6718019,,,,,,,,,109.6676116,109.6718019,110.1785533,110.6454648,110.6454648,111.2789196,i,1,0.620473166,None,21,1,2025-09-18_09h51.11.945,IAT_block_loop1after,,2025.1.1,None,2025-09-18 09h51.27.788015 +0800
IAT_block34.xlsx,1,胖图或期待词-按E键,瘦图或者中性词-按I键,"接下来将进行第四部分测试。
请将你左手和右手的食指部分分别放在键盘的E键和I键上。
该部分流程与刚才的完全相同，规则同样为：
胖图 或 期待词 - 按E键
瘦图 或 中性词 - 按I键
请在保证正确率的情况下尽快对其进行分类。
如果你已明白规则，请按空格开始测试。
如果有任何疑问，请联系实验员。",pic/intro4.png,pic/anjianl4.png,pic/anjianr4.png,10,10,0,pic/do2.png,i,0.5225,0.261,space,2.680542999,None,i,1,1.441398583,None,0,3,3,3,0,10,10,5,111.3003483,,,,,,,,,111.2960223,111.3003483,111.797907,112.2654012,112.2654012,113.7127668,i,1,1.441398583,None,21,1,2025-09-18_09h51.11.945,IAT_block_loop1after,,2025.1.1,None,2025-09-18 09h51.27.788015 +0800
IAT_block34.xlsx,1,胖图或期待词-按E键,瘦图或者中性词-按I键,"接下来将进行第四部分测试。
请将你左手和右手的食指部分分别放在键盘的E键和I键上。
该部分流程与刚才的完全相同，规则同样为：
胖图 或 期待词 - 按E键
瘦图 或 中性词 - 按I键
请在保证正确率的情况下尽快对其进行分类。
如果你已明白规则，请按空格开始测试。
如果有任何疑问，请联系实验员。",pic/intro4.png,pic/anjianl4.png,pic/anjianr4.png,11,11,0,pic/fat2.png,e,0.796,0.528,space,2.680542999,None,e,1,0.555767791,None,0,3,3,3,0,11,11,9,113.7373621,,,,,,,,,113.7331575,113.7373621,114.2454939,114.6990203,114.6990203,115.2622733,e,1,0.555767791,None,21,1,2025-09-18_09h51.11.945,IAT_block_loop1after,,2025.1.1,None,2025-09-18 09h51.27.788015 +0800
IAT_block34.xlsx,1,胖图或期待词-按E键,瘦图或者中性词-按I键,"接下来将进行第四部分测试。
请将你左手和右手的食指部分分别放在键盘的E键和I键上。
该部分流程与刚才的完全相同，规则同样为：
胖图 或 期待词 - 按E键
瘦图 或 中性词 - 按I键
请在保证正确率的情况下尽快对其进行分类。
如果你已明白规则，请按空格开始测试。
如果有任何疑问，请联系实验员。",pic/intro4.png,pic/anjianl4.png,pic/anjianr4.png,12,12,0,pic/want3.png,e,0.5225,0.261,space,2.680542999,None,i,0,0.645533166,None,0,3,3,3,0,12,12,2,115.2827997,,,,,,,,,115.278488,115.2827997,115.7954465,116.2621656,116.2621656,116.9125944,i,0,0.645533166,None,21,1,2025-09-18_09h51.11.945,IAT_block_loop1after,,2025.1.1,None,2025-09-18 09h51.27.788015 +0800
IAT_block34.xlsx,1,胖图或期待词-按E键,瘦图或者中性词-按I键,"接下来将进行第四部分测试。
请将你左手和右手的食指部分分别放在键盘的E键和I键上。
该部分流程与刚才的完全相同，规则同样为：
胖图 或 期待词 - 按E键
瘦图 或 中性词 - 按I键
请在保证正确率的情况下尽快对其进行分类。
如果你已明白规则，请按空格开始测试。
如果有任何疑问，请联系实验员。",pic/intro4.png,pic/anjianl4.png,pic/anjianr4.png,13,13,0,pic/fat3.png,e,0.796,0.528,space,2.680542999,None,e,1,0.612834541,None,0,3,3,3,0,13,13,10,116.9377335,,,,,,,,,116.9334318,116.9377335,117.4315461,117.911755,117.911755,118.5293732,e,1,0.612834541,None,21,1,2025-09-18_09h51.11.945,IAT_block_loop1after,,2025.1.1,None,2025-09-18 09h51.27.788015 +0800
IAT_block34.xlsx,1,胖图或期待词-按E键,瘦图或者中性词-按I键,"接下来将进行第四部分测试。
请将你左手和右手的食指部分分别放在键盘的E键和I键上。
该部分流程与刚才的完全相同，规则同样为：
胖图 或 期待词 - 按E键
瘦图 或 中性词 - 按I键
请在保证正确率的情况下尽快对其进行分类。
如果你已明白规则，请按空格开始测试。
如果有任何疑问，请联系实验员。",pic/intro4.png,pic/anjianl4.png,pic/anjianr4.png,14,14,0,pic/want4.png,e,0.5225,0.261,space,2.680542999,None,e,1,0.536842999,None,0,3,3,3,0,14,14,3,118.5500251,,,,,,,,,118.5456646,118.5500251,119.0621309,119.5287076,119.5287076,120.0789022,e,1,0.536842999,None,21,1,2025-09-18_09h51.11.945,IAT_block_loop1after,,2025.1.1,None,2025-09-18 09h51.27.788015 +0800
IAT_block34.xlsx,1,胖图或期待词-按E键,瘦图或者中性词-按I键,"接下来将进行第四部分测试。
请将你左手和右手的食指部分分别放在键盘的E键和I键上。
该部分流程与刚才的完全相同，规则同样为：
胖图 或 期待词 - 按E键
瘦图 或 中性词 - 按I键
请在保证正确率的情况下尽快对其进行分类。
如果你已明白规则，请按空格开始测试。
如果有任何疑问，请联系实验员。",pic/intro4.png,pic/anjianl4.png,pic/anjianr4.png,15,15,0,pic/fat4.png,e,0.796,0.528,space,2.680542999,None,e,1,0.623009333,None,0,3,3,3,0,15,15,11,120.1040663,,,,,,,,,120.0998626,120.1040663,120.598067,121.0785398,121.0785398,121.712266,e,1,0.623009333,None,21,1,2025-09-18_09h51.11.945,IAT_block_loop1after,,2025.1.1,None,2025-09-18 09h51.27.788015 +0800
IAT_block34.xlsx,1,胖图或期待词-按E键,瘦图或者中性词-按I键,"接下来将进行第四部分测试。
请将你左手和右手的食指部分分别放在键盘的E键和I键上。
该部分流程与刚才的完全相同，规则同样为：
胖图 或 期待词 - 按E键
瘦图 或 中性词 - 按I键
请在保证正确率的情况下尽快对其进行分类。
如果你已明白规则，请按空格开始测试。
如果有任何疑问，请联系实验员。",pic/intro4.png,pic/anjianl4.png,pic/anjianr4.png,3,3,0,,,,,space,2.680542999,None,,,,,0,3,3,3,,,,,,,,,,,,,,,,,,,,,,,,21,1,2025-09-18_09h51.11.945,IAT_block_loop1after,,2025.1.1,None,2025-09-18 09h51.27.788015 +0800
IAT_block5.xlsx,1,中性词-按E键,期待词-按I键,"接下来将进行第五部分测试。
请将你左手和右手的食指部分分别放在键盘的E键和I键上。
注意此时依然是对期待词和中性词进行分类，但是按键进行了对调
规则为：
中性词 - 按E键
期待词 - 按I键
请在保证正确率的情况下尽快对其进行分类。
如果你已明白规则，请按空格开始测试。
如果有任何疑问，请联系实验员。",pic/intro5.png,pic/anjianl5.png,pic/anjianr5.png,0,0,0,pic/do2.png,e,0.5225,0.261,space,6.705670166,None,e,1,0.736691666,None,0,4,4,4,0,0,0,9,131.4415008,,121.9753193,121.981895,124.6995816,131.4121445,space,6.705670166,None,131.4368872,131.4415008,131.9452559,132.3985131,132.3985131,133.1454866,e,1,0.736691666,None,21,1,2025-09-18_09h51.11.945,IAT_block_loop1after,,2025.1.1,None,2025-09-18 09h51.27.788015 +0800
IAT_block5.xlsx,1,中性词-按E键,期待词-按I键,"接下来将进行第五部分测试。
请将你左手和右手的食指部分分别放在键盘的E键和I键上。
注意此时依然是对期待词和中性词进行分类，但是按键进行了对调
规则为：
中性词 - 按E键
期待词 - 按I键
请在保证正确率的情况下尽快对其进行分类。
如果你已明白规则，请按空格开始测试。
如果有任何疑问，请联系实验员。",pic/intro5.png,pic/anjianl5.png,pic/anjianr5.png,1,1,0,pic/do1.png,e,0.5225,0.261,space,6.705670166,None,e,1,0.514804416,None,0,4,4,4,0,1,1,0,133.1648383,,,,,,,,,133.160562,133.1648383,133.6619937,134.1453707,134.1453707,134.6625856,e,1,0.514804416,None,21,1,2025-09-18_09h51.11.945,IAT_block_loop1after,,2025.1.1,None,2025-09-18 09h51.27.788015 +0800
IAT_block5.xlsx,1,中性词-按E键,期待词-按I键,"接下来将进行第五部分测试。
请将你左手和右手的食指部分分别放在键盘的E键和I键上。
注意此时依然是对期待词和中性词进行分类，但是按键进行了对调
规则为：
中性词 - 按E键
期待词 - 按I键
请在保证正确率的情况下尽快对其进行分类。
如果你已明白规则，请按空格开始测试。
如果有任何疑问，请联系实验员。",pic/intro5.png,pic/anjianl5.png,pic/anjianr5.png,2,2,0,pic/do3.png,e,0.5225,0.261,space,6.705670166,None,e,1,0.707747541,None,0,4,4,4,0,2,2,10,134.6823852,,,,,,,,,134.6779835,134.6823852,135.195122,135.6483425,135.6483425,136.3621684,e,1,0.707747541,None,21,1,2025-09-18_09h51.11.945,IAT_block_loop1after,,2025.1.1,None,2025-09-18 09h51.27.788015 +0800
IAT_block5.xlsx,1,中性词-按E键,期待词-按I键,"接下来将进行第五部分测试。
请将你左手和右手的食指部分分别放在键盘的E键和I键上。
注意此时依然是对期待词和中性词进行分类，但是按键进行了对调
规则为：
中性词 - 按E键
期待词 - 按I键
请在保证正确率的情况下尽快对其进行分类。
如果你已明白规则，请按空格开始测试。
如果有任何疑问，请联系实验员。",pic/intro5.png,pic/anjianl5.png,pic/anjianr5.png,3,3,0,pic/want2.png,i,0.5225,0.261,space,6.705670166,None,i,1,0.506573833,None,0,4,4,4,0,3,3,13,136.383287,,,,,,,,,136.3789802,136.383287,136.8814009,137.3484297,137.3484297,137.86212,i,1,0.506573833,None,21,1,2025-09-18_09h51.11.945,IAT_block_loop1after,,2025.1.1,None,2025-09-18 09h51.27.788015 +0800
IAT_block5.xlsx,1,中性词-按E键,期待词-按I键,"接下来将进行第五部分测试。
请将你左手和右手的食指部分分别放在键盘的E键和I键上。
注意此时依然是对期待词和中性词进行分类，但是按键进行了对调
规则为：
中性词 - 按E键
期待词 - 按I键
请在保证正确率的情况下尽快对其进行分类。
如果你已明白规则，请按空格开始测试。
如果有任何疑问，请联系实验员。",pic/intro5.png,pic/anjianl5.png,pic/anjianr5.png,4,4,0,pic/do4.png,e,0.5225,0.261,space,6.705670166,None,e,1,0.665433916,None,0,4,4,4,0,4,4,11,137.8775942,,,,,,,,,137.8729535,137.8775942,138.3652558,138.8485236,138.8485236,139.5292145,e,1,0.665433916,None,21,1,2025-09-18_09h51.11.945,IAT_block_loop1after,,2025.1.1,None,2025-09-18 09h51.27.788015 +0800
IAT_block5.xlsx,1,中性词-按E键,期待词-按I键,"接下来将进行第五部分测试。
请将你左手和右手的食指部分分别放在键盘的E键和I键上。
注意此时依然是对期待词和中性词进行分类，但是按键进行了对调
规则为：
中性词 - 按E键
期待词 - 按I键
请在保证正确率的情况下尽快对其进行分类。
如果你已明白规则，请按空格开始测试。
如果有任何疑问，请联系实验员。",pic/intro5.png,pic/anjianl5.png,pic/anjianr5.png,5,5,0,pic/do3.png,e,0.5225,0.261,space,6.705670166,None,e,1,0.88686325,None,0,4,4,4,0,5,5,2,139.5496962,,,,,,,,,139.5453231,139.5496962,140.061958,140.5150366,140.5150366,141.4120493,e,1,0.88686325,None,21,1,2025-09-18_09h51.11.945,IAT_block_loop1after,,2025.1.1,None,2025-09-18 09h51.27.788015 +0800
IAT_block5.xlsx,1,中性词-按E键,期待词-按I键,"接下来将进行第五部分测试。
请将你左手和右手的食指部分分别放在键盘的E键和I键上。
注意此时依然是对期待词和中性词进行分类，但是按键进行了对调
规则为：
中性词 - 按E键
期待词 - 按I键
请在保证正确率的情况下尽快对其进行分类。
如果你已明白规则，请按空格开始测试。
如果有任何疑问，请联系实验员。",pic/intro5.png,pic/anjianl5.png,pic/anjianr5.png,6,6,0,pic/do2.png,e,0.5225,0.261,space,6.705670166,None,e,1,0.616404958,None,0,4,4,4,0,6,6,1,141.4328556,,,,,,,,,141.4285189,141.4328556,141.9313552,142.3985211,142.3985211,143.0291122,e,1,0.616404958,None,21,1,2025-09-18_09h51.11.945,IAT_block_loop1after,,2025.1.1,None,2025-09-18 09h51.27.788015 +0800
IAT_block5.xlsx,1,中性词-按E键,期待词-按I键,"接下来将进行第五部分测试。
请将你左手和右手的食指部分分别放在键盘的E键和I键上。
注意此时依然是对期待词和中性词进行分类，但是按键进行了对调
规则为：
中性词 - 按E键
期待词 - 按I键
请在保证正确率的情况下尽快对其进行分类。
如果你已明白规则，请按空格开始测试。
如果有任何疑问，请联系实验员。",pic/intro5.png,pic/anjianl5.png,pic/anjianr5.png,7,7,0,pic/want3.png,i,0.5225,0.261,space,6.705670166,None,i,1,1.363758166,None,0,4,4,4,0,7,7,6,143.0496952,,,,,,,,,143.0450368,143.0496952,143.5480508,144.0150581,144.0150581,145.38234,i,1,1.363758166,None,21,1,2025-09-18_09h51.11.945,IAT_block_loop1after,,2025.1.1,None,2025-09-18 09h51.27.788015 +0800
IAT_block5.xlsx,1,中性词-按E键,期待词-按I键,"接下来将进行第五部分测试。
请将你左手和右手的食指部分分别放在键盘的E键和I键上。
注意此时依然是对期待词和中性词进行分类，但是按键进行了对调
规则为：
中性词 - 按E键
期待词 - 按I键
请在保证正确率的情况下尽快对其进行分类。
如果你已明白规则，请按空格开始测试。
如果有任何疑问，请联系实验员。",pic/intro5.png,pic/anjianl5.png,pic/anjianr5.png,8,8,0,pic/want2.png,i,0.5225,0.261,space,6.705670166,None,i,1,0.546502707,None,0,4,4,4,0,8,8,5,145.4035015,,,,,,,,,145.3991958,145.4035015,145.9119413,146.395223,146.395223,146.9457581,i,1,0.546502707,None,21,1,2025-09-18_09h51.11.945,IAT_block_loop1after,,2025.1.1,None,2025-09-18 09h51.27.788015 +0800
IAT_block5.xlsx,1,中性词-按E键,期待词-按I键,"接下来将进行第五部分测试。
请将你左手和右手的食指部分分别放在键盘的E键和I键上。
注意此时依然是对期待词和中性词进行分类，但是按键进行了对调
规则为：
中性词 - 按E键
期待词 - 按I键
请在保证正确率的情况下尽快对其进行分类。
如果你已明白规则，请按空格开始测试。
如果有任何疑问，请联系实验员。",pic/intro5.png,pic/anjianl5.png,pic/anjianr5.png,9,9,0,pic/want4.png,i,0.5225,0.261,space,6.705670166,None,i,1,0.555366791,None,0,4,4,4,0,9,9,7,146.9617195,,,,,,,,,146.9572123,146.9617195,147.4478579,147.9452852,147.9452852,148.5121161,i,1,0.555366791,None,21,1,2025-09-18_09h51.11.945,IAT_block_loop1after,,2025.1.1,None,2025-09-18 09h51.27.788015 +0800
IAT_block5.xlsx,1,中性词-按E键,期待词-按I键,"接下来将进行第五部分测试。
请将你左手和右手的食指部分分别放在键盘的E键和I键上。
注意此时依然是对期待词和中性词进行分类，但是按键进行了对调
规则为：
中性词 - 按E键
期待词 - 按I键
请在保证正确率的情况下尽快对其进行分类。
如果你已明白规则，请按空格开始测试。
如果有任何疑问，请联系实验员。",pic/intro5.png,pic/anjianl5.png,pic/anjianr5.png,10,10,0,pic/want3.png,i,0.5225,0.261,space,6.705670166,None,e,0,1.631342416,None,0,4,4,4,0,10,10,14,148.5322972,,,,,,,,,148.5279368,148.5322972,149.0451115,149.4983279,149.4983279,151.1322384,e,0,1.631342416,None,21,1,2025-09-18_09h51.11.945,IAT_block_loop1after,,2025.1.1,None,2025-09-18 09h51.27.788015 +0800
IAT_block5.xlsx,1,中性词-按E键,期待词-按I键,"接下来将进行第五部分测试。
请将你左手和右手的食指部分分别放在键盘的E键和I键上。
注意此时依然是对期待词和中性词进行分类，但是按键进行了对调
规则为：
中性词 - 按E键
期待词 - 按I键
请在保证正确率的情况下尽快对其进行分类。
如果你已明白规则，请按空格开始测试。
如果有任何疑问，请联系实验员。",pic/intro5.png,pic/anjianl5.png,pic/anjianr5.png,11,11,0,pic/want1.png,i,0.5225,0.261,space,6.705670166,None,i,1,0.971352958,None,0,4,4,4,0,11,11,12,151.1517875,,,,,,,,,151.1474402,151.1517875,151.6479567,152.1452465,152.1452465,153.1286936,i,1,0.971352958,None,21,1,2025-09-18_09h51.11.945,IAT_block_loop1after,,2025.1.1,None,2025-09-18 09h51.27.788015 +0800
IAT_block5.xlsx,1,中性词-按E键,期待词-按I键,"接下来将进行第五部分测试。
请将你左手和右手的食指部分分别放在键盘的E键和I键上。
注意此时依然是对期待词和中性词进行分类，但是按键进行了对调
规则为：
中性词 - 按E键
期待词 - 按I键
请在保证正确率的情况下尽快对其进行分类。
如果你已明白规则，请按空格开始测试。
如果有任何疑问，请联系实验员。",pic/intro5.png,pic/anjianl5.png,pic/anjianr5.png,12,12,0,pic/do4.png,e,0.5225,0.261,space,6.705670166,None,e,1,1.376061166,None,0,4,4,4,0,12,12,3,153.1474097,,,,,,,,,153.1430626,153.1474097,153.6478155,154.1283754,154.1283754,155.5120997,e,1,1.376061166,None,21,1,2025-09-18_09h51.11.945,IAT_block_loop1after,,2025.1.1,None,2025-09-18 09h51.27.788015 +0800
IAT_block5.xlsx,1,中性词-按E键,期待词-按I键,"接下来将进行第五部分测试。
请将你左手和右手的食指部分分别放在键盘的E键和I键上。
注意此时依然是对期待词和中性词进行分类，但是按键进行了对调
规则为：
中性词 - 按E键
期待词 - 按I键
请在保证正确率的情况下尽快对其进行分类。
如果你已明白规则，请按空格开始测试。
如果有任何疑问，请联系实验员。",pic/intro5.png,pic/anjianl5.png,pic/anjianr5.png,13,13,0,pic/want1.png,i,0.5225,0.261,space,6.705670166,None,i,1,1.34214275,None,0,4,4,4,0,13,13,4,155.5326369,,,,,,,,,155.528238,155.5326369,156.0312083,156.4982524,156.4982524,157.8454853,i,1,1.34214275,None,21,1,2025-09-18_09h51.11.945,IAT_block_loop1after,,2025.1.1,None,2025-09-18 09h51.27.788015 +0800
IAT_block5.xlsx,1,中性词-按E键,期待词-按I键,"接下来将进行第五部分测试。
请将你左手和右手的食指部分分别放在键盘的E键和I键上。
注意此时依然是对期待词和中性词进行分类，但是按键进行了对调
规则为：
中性词 - 按E键
期待词 - 按I键
请在保证正确率的情况下尽快对其进行分类。
如果你已明白规则，请按空格开始测试。
如果有任何疑问，请联系实验员。",pic/intro5.png,pic/anjianl5.png,pic/anjianr5.png,14,14,0,pic/do1.png,e,0.5225,0.261,space,6.705670166,None,e,1,1.026500374,None,0,4,4,4,0,14,14,8,157.8615637,,,,,,,,,157.8573811,157.8615637,158.361852,158.8317394,158.8317394,159.8621121,e,1,1.026500374,None,21,1,2025-09-18_09h51.11.945,IAT_block_loop1after,,2025.1.1,None,2025-09-18 09h51.27.788015 +0800
IAT_block5.xlsx,1,中性词-按E键,期待词-按I键,"接下来将进行第五部分测试。
请将你左手和右手的食指部分分别放在键盘的E键和I键上。
注意此时依然是对期待词和中性词进行分类，但是按键进行了对调
规则为：
中性词 - 按E键
期待词 - 按I键
请在保证正确率的情况下尽快对其进行分类。
如果你已明白规则，请按空格开始测试。
如果有任何疑问，请联系实验员。",pic/intro5.png,pic/anjianl5.png,pic/anjianr5.png,15,15,0,pic/want4.png,i,0.5225,0.261,space,6.705670166,None,i,1,0.659895,None,0,4,4,4,0,15,15,15,159.8818937,,,,,,,,,159.8774857,159.8818937,160.3812735,160.8483391,160.8483391,161.5124176,i,1,0.659895,None,21,1,2025-09-18_09h51.11.945,IAT_block_loop1after,,2025.1.1,None,2025-09-18 09h51.27.788015 +0800
IAT_block5.xlsx,1,中性词-按E键,期待词-按I键,"接下来将进行第五部分测试。
请将你左手和右手的食指部分分别放在键盘的E键和I键上。
注意此时依然是对期待词和中性词进行分类，但是按键进行了对调
规则为：
中性词 - 按E键
期待词 - 按I键
请在保证正确率的情况下尽快对其进行分类。
如果你已明白规则，请按空格开始测试。
如果有任何疑问，请联系实验员。",pic/intro5.png,pic/anjianl5.png,pic/anjianr5.png,4,4,0,,,,,space,6.705670166,None,,,,,0,4,4,4,,,,,,,,,,,,,,,,,,,,,,,,21,1,2025-09-18_09h51.11.945,IAT_block_loop1after,,2025.1.1,None,2025-09-18 09h51.27.788015 +0800
IAT_block67.xlsx,1,胖图或中性词-按E键,瘦图或者期待词-按I键,"接下来将进行第六部分测试。
请将你左手和右手的食指部分分别放在键盘的E键和I键上。
该部分的规则为：（注意中性词和期待词的规则跟刚才一样）
胖图 或 中性词 - 按E键
瘦图 或 期待词 - 按I键
请在保证正确率的情况下尽快对其进行分类。
如果你已明白规则，请按空格开始测试。
如果有任何疑问，请联系实验员。",pic/intro6.png,pic/anjianl6.png,pic/anjianr6.png,0,0,0,pic/want1.png,i,0.5225,0.261,space,8.074823707,None,i,1,1.004885958,None,0,5,5,5,0,0,0,0,172.6073917,,161.7398871,161.746539,164.4990407,172.5789532,space,8.074823707,None,172.6028822,172.6073917,173.0976697,173.5649208,173.5649208,174.5785408,i,1,1.004885958,None,21,1,2025-09-18_09h51.11.945,IAT_block_loop1after,,2025.1.1,None,2025-09-18 09h51.27.788015 +0800
IAT_block67.xlsx,1,胖图或中性词-按E键,瘦图或者期待词-按I键,"接下来将进行第六部分测试。
请将你左手和右手的食指部分分别放在键盘的E键和I键上。
该部分的规则为：（注意中性词和期待词的规则跟刚才一样）
胖图 或 中性词 - 按E键
瘦图 或 期待词 - 按I键
请在保证正确率的情况下尽快对其进行分类。
如果你已明白规则，请按空格开始测试。
如果有任何疑问，请联系实验员。",pic/intro6.png,pic/anjianl6.png,pic/anjianr6.png,1,1,0,pic/fat2.png,e,0.796,0.528,space,8.074823707,None,e,1,0.678414166,None,0,5,5,5,0,1,1,9,174.6046073,,,,,,,,,174.6003081,174.6046073,175.1117138,175.5783793,175.5783793,176.2619602,e,1,0.678414166,None,21,1,2025-09-18_09h51.11.945,IAT_block_loop1after,,2025.1.1,None,2025-09-18 09h51.27.788015 +0800
IAT_block67.xlsx,1,胖图或中性词-按E键,瘦图或者期待词-按I键,"接下来将进行第六部分测试。
请将你左手和右手的食指部分分别放在键盘的E键和I键上。
该部分的规则为：（注意中性词和期待词的规则跟刚才一样）
胖图 或 中性词 - 按E键
瘦图 或 期待词 - 按I键
请在保证正确率的情况下尽快对其进行分类。
如果你已明白规则，请按空格开始测试。
如果有任何疑问，请联系实验员。",pic/intro6.png,pic/anjianl6.png,pic/anjianr6.png,2,2,0,pic/thin3.png,i,0.796,0.622,space,8.074823707,None,i,1,1.398179458,None,0,5,5,5,0,2,2,14,176.2880212,,,,,,,,,176.2838828,176.2880212,176.7810436,177.2615927,177.2615927,178.662301,i,1,1.398179458,None,21,1,2025-09-18_09h51.11.945,IAT_block_loop1after,,2025.1.1,None,2025-09-18 09h51.27.788015 +0800
IAT_block67.xlsx,1,胖图或中性词-按E键,瘦图或者期待词-按I键,"接下来将进行第六部分测试。
请将你左手和右手的食指部分分别放在键盘的E键和I键上。
该部分的规则为：（注意中性词和期待词的规则跟刚才一样）
胖图 或 中性词 - 按E键
瘦图 或 期待词 - 按I键
请在保证正确率的情况下尽快对其进行分类。
如果你已明白规则，请按空格开始测试。
如果有任何疑问，请联系实验员。",pic/intro6.png,pic/anjianl6.png,pic/anjianr6.png,3,3,0,pic/want2.png,i,0.5225,0.261,space,8.074823707,None,i,1,0.7609405,None,0,5,5,5,0,3,3,1,178.6821832,,,,,,,,,178.6778548,178.6821832,179.1810437,179.6616903,179.6616903,180.4286085,i,1,0.7609405,None,21,1,2025-09-18_09h51.11.945,IAT_block_loop1after,,2025.1.1,None,2025-09-18 09h51.27.788015 +0800
IAT_block67.xlsx,1,胖图或中性词-按E键,瘦图或者期待词-按I键,"接下来将进行第六部分测试。
请将你左手和右手的食指部分分别放在键盘的E键和I键上。
该部分的规则为：（注意中性词和期待词的规则跟刚才一样）
胖图 或 中性词 - 按E键
瘦图 或 期待词 - 按I键
请在保证正确率的情况下尽快对其进行分类。
如果你已明白规则，请按空格开始测试。
如果有任何疑问，请联系实验员。",pic/intro6.png,pic/anjianl6.png,pic/anjianr6.png,4,4,0,pic/fat1.png,e,0.796,0.528,space,8.074823707,None,e,1,0.594378291,None,0,5,5,5,0,4,4,8,180.454218,,,,,,,,,180.4500274,180.454218,180.9617092,181.4281719,181.4281719,182.0286389,e,1,0.594378291,None,21,1,2025-09-18_09h51.11.945,IAT_block_loop1after,,2025.1.1,None,2025-09-18 09h51.27.788015 +0800
IAT_block67.xlsx,1,胖图或中性词-按E键,瘦图或者期待词-按I键,"接下来将进行第六部分测试。
请将你左手和右手的食指部分分别放在键盘的E键和I键上。
该部分的规则为：（注意中性词和期待词的规则跟刚才一样）
胖图 或 中性词 - 按E键
瘦图 或 期待词 - 按I键
请在保证正确率的情况下尽快对其进行分类。
如果你已明白规则，请按空格开始测试。
如果有任何疑问，请联系实验员。",pic/intro6.png,pic/anjianl6.png,pic/anjianr6.png,5,5,0,pic/do1.png,e,0.5225,0.261,space,8.074823707,None,e,1,0.871640416,None,0,5,5,5,0,5,5,4,182.0473079,,,,,,,,,182.0429697,182.0473079,182.5476648,183.014868,183.014868,183.8951835,e,1,0.871640416,None,21,1,2025-09-18_09h51.11.945,IAT_block_loop1after,,2025.1.1,None,2025-09-18 09h51.27.788015 +0800
IAT_block67.xlsx,1,胖图或中性词-按E键,瘦图或者期待词-按I键,"接下来将进行第六部分测试。
请将你左手和右手的食指部分分别放在键盘的E键和I键上。
该部分的规则为：（注意中性词和期待词的规则跟刚才一样）
胖图 或 中性词 - 按E键
瘦图 或 期待词 - 按I键
请在保证正确率的情况下尽快对其进行分类。
如果你已明白规则，请按空格开始测试。
如果有任何疑问，请联系实验员。",pic/intro6.png,pic/anjianl6.png,pic/anjianr6.png,6,6,0,pic/thin4.png,i,0.796,0.622,space,8.074823707,None,i,1,0.533466457,None,0,5,5,5,0,6,6,15,183.92145,,,,,,,,,183.917196,183.92145,184.4282365,184.8950355,184.8950355,185.4454156,i,1,0.533466457,None,21,1,2025-09-18_09h51.11.945,IAT_block_loop1after,,2025.1.1,None,2025-09-18 09h51.27.788015 +0800
IAT_block67.xlsx,1,胖图或中性词-按E键,瘦图或者期待词-按I键,"接下来将进行第六部分测试。
请将你左手和右手的食指部分分别放在键盘的E键和I键上。
该部分的规则为：（注意中性词和期待词的规则跟刚才一样）
胖图 或 中性词 - 按E键
瘦图 或 期待词 - 按I键
请在保证正确率的情况下尽快对其进行分类。
如果你已明白规则，请按空格开始测试。
如果有任何疑问，请联系实验员。",pic/intro6.png,pic/anjianl6.png,pic/anjianr6.png,7,7,0,pic/thin2.png,i,0.796,0.622,space,8.074823707,None,i,1,0.719470832,None,0,5,5,5,0,7,7,13,185.4708471,,,,,,,,,185.4665882,185.4708471,185.9783578,186.4449621,186.4449621,187.1659368,i,1,0.719470832,None,21,1,2025-09-18_09h51.11.945,IAT_block_loop1after,,2025.1.1,None,2025-09-18 09h51.27.788015 +0800
IAT_block67.xlsx,1,胖图或中性词-按E键,瘦图或者期待词-按I键,"接下来将进行第六部分测试。
请将你左手和右手的食指部分分别放在键盘的E键和I键上。
该部分的规则为：（注意中性词和期待词的规则跟刚才一样）
胖图 或 中性词 - 按E键
瘦图 或 期待词 - 按I键
请在保证正确率的情况下尽快对其进行分类。
如果你已明白规则，请按空格开始测试。
如果有任何疑问，请联系实验员。",pic/intro6.png,pic/anjianl6.png,pic/anjianr6.png,8,8,0,pic/do3.png,e,0.5225,0.261,space,8.074823707,None,e,1,1.483993666,None,0,5,5,5,0,8,8,6,187.185759,,,,,,,,,187.1812923,187.185759,187.6810155,188.1782956,188.1782956,189.6652903,e,1,1.483993666,None,21,1,2025-09-18_09h51.11.945,IAT_block_loop1after,,2025.1.1,None,2025-09-18 09h51.27.788015 +0800
IAT_block67.xlsx,1,胖图或中性词-按E键,瘦图或者期待词-按I键,"接下来将进行第六部分测试。
请将你左手和右手的食指部分分别放在键盘的E键和I键上。
该部分的规则为：（注意中性词和期待词的规则跟刚才一样）
胖图 或 中性词 - 按E键
瘦图 或 期待词 - 按I键
请在保证正确率的情况下尽快对其进行分类。
如果你已明白规则，请按空格开始测试。
如果有任何疑问，请联系实验员。",pic/intro6.png,pic/anjianl6.png,pic/anjianr6.png,9,9,0,pic/want3.png,i,0.5225,0.261,space,8.074823707,None,e,0,1.091466166,None,0,5,5,5,0,9,9,2,189.6844115,,,,,,,,,189.6800181,189.6844115,190.1948877,190.6648243,190.6648243,191.7618349,e,0,1.091466166,None,21,1,2025-09-18_09h51.11.945,IAT_block_loop1after,,2025.1.1,None,2025-09-18 09h51.27.788015 +0800
IAT_block67.xlsx,1,胖图或中性词-按E键,瘦图或者期待词-按I键,"接下来将进行第六部分测试。
请将你左手和右手的食指部分分别放在键盘的E键和I键上。
该部分的规则为：（注意中性词和期待词的规则跟刚才一样）
胖图 或 中性词 - 按E键
瘦图 或 期待词 - 按I键
请在保证正确率的情况下尽快对其进行分类。
如果你已明白规则，请按空格开始测试。
如果有任何疑问，请联系实验员。",pic/intro6.png,pic/anjianl6.png,pic/anjianr6.png,10,10,0,pic/fat3.png,e,0.796,0.528,space,8.074823707,None,e,1,0.616731458,None,0,5,5,5,0,10,10,10,191.7873331,,,,,,,,,191.7829936,191.7873331,192.280994,192.7615742,192.7615742,193.3955273,e,1,0.616731458,None,21,1,2025-09-18_09h51.11.945,IAT_block_loop1after,,2025.1.1,None,2025-09-18 09h51.27.788015 +0800
IAT_block67.xlsx,1,胖图或中性词-按E键,瘦图或者期待词-按I键,"接下来将进行第六部分测试。
请将你左手和右手的食指部分分别放在键盘的E键和I键上。
该部分的规则为：（注意中性词和期待词的规则跟刚才一样）
胖图 或 中性词 - 按E键
瘦图 或 期待词 - 按I键
请在保证正确率的情况下尽快对其进行分类。
如果你已明白规则，请按空格开始测试。
如果有任何疑问，请联系实验员。",pic/intro6.png,pic/anjianl6.png,pic/anjianr6.png,11,11,0,pic/fat4.png,e,0.796,0.528,space,8.074823707,None,e,1,0.616813249,None,0,5,5,5,0,11,11,11,193.4195845,,,,,,,,,193.4154058,193.4195845,193.9282135,194.3823392,194.3823392,195.0117529,e,1,0.616813249,None,21,1,2025-09-18_09h51.11.945,IAT_block_loop1after,,2025.1.1,None,2025-09-18 09h51.27.788015 +0800
IAT_block67.xlsx,1,胖图或中性词-按E键,瘦图或者期待词-按I键,"接下来将进行第六部分测试。
请将你左手和右手的食指部分分别放在键盘的E键和I键上。
该部分的规则为：（注意中性词和期待词的规则跟刚才一样）
胖图 或 中性词 - 按E键
瘦图 或 期待词 - 按I键
请在保证正确率的情况下尽快对其进行分类。
如果你已明白规则，请按空格开始测试。
如果有任何疑问，请联系实验员。",pic/intro6.png,pic/anjianl6.png,pic/anjianr6.png,12,12,0,pic/do4.png,e,0.5225,0.261,space,8.074823707,None,e,1,1.218998874,None,0,5,5,5,0,12,12,7,195.0310871,,,,,,,,,195.0267633,195.0310871,195.5283317,195.9981196,195.9981196,197.2283794,e,1,1.218998874,None,21,1,2025-09-18_09h51.11.945,IAT_block_loop1after,,2025.1.1,None,2025-09-18 09h51.27.788015 +0800
IAT_block67.xlsx,1,胖图或中性词-按E键,瘦图或者期待词-按I键,"接下来将进行第六部分测试。
请将你左手和右手的食指部分分别放在键盘的E键和I键上。
该部分的规则为：（注意中性词和期待词的规则跟刚才一样）
胖图 或 中性词 - 按E键
瘦图 或 期待词 - 按I键
请在保证正确率的情况下尽快对其进行分类。
如果你已明白规则，请按空格开始测试。
如果有任何疑问，请联系实验员。",pic/intro6.png,pic/anjianl6.png,pic/anjianr6.png,13,13,0,pic/thin1.png,i,0.796,0.488,space,8.074823707,None,i,1,0.725971499,None,0,5,5,5,0,13,13,12,197.2499051,,,,,,,,,197.2455923,197.2499051,197.747664,198.2151038,198.2151038,198.9454726,i,1,0.725971499,None,21,1,2025-09-18_09h51.11.945,IAT_block_loop1after,,2025.1.1,None,2025-09-18 09h51.27.788015 +0800
IAT_block67.xlsx,1,胖图或中性词-按E键,瘦图或者期待词-按I键,"接下来将进行第六部分测试。
请将你左手和右手的食指部分分别放在键盘的E键和I键上。
该部分的规则为：（注意中性词和期待词的规则跟刚才一样）
胖图 或 中性词 - 按E键
瘦图 或 期待词 - 按I键
请在保证正确率的情况下尽快对其进行分类。
如果你已明白规则，请按空格开始测试。
如果有任何疑问，请联系实验员。",pic/intro6.png,pic/anjianl6.png,pic/anjianr6.png,14,14,0,pic/want4.png,i,0.5225,0.261,space,8.074823707,None,i,1,0.513112041,None,0,5,5,5,0,14,14,3,198.9647882,,,,,,,,,198.9603934,198.9647882,199.4614191,199.9449157,199.9449157,200.4620112,i,1,0.513112041,None,21,1,2025-09-18_09h51.11.945,IAT_block_loop1after,,2025.1.1,None,2025-09-18 09h51.27.788015 +0800
IAT_block67.xlsx,1,胖图或中性词-按E键,瘦图或者期待词-按I键,"接下来将进行第六部分测试。
请将你左手和右手的食指部分分别放在键盘的E键和I键上。
该部分的规则为：（注意中性词和期待词的规则跟刚才一样）
胖图 或 中性词 - 按E键
瘦图 或 期待词 - 按I键
请在保证正确率的情况下尽快对其进行分类。
如果你已明白规则，请按空格开始测试。
如果有任何疑问，请联系实验员。",pic/intro6.png,pic/anjianl6.png,pic/anjianr6.png,15,15,0,pic/do2.png,e,0.5225,0.261,space,8.074823707,None,e,1,0.658902749,None,0,5,5,5,0,15,15,5,200.4801648,,,,,,,,,200.475563,200.4801648,200.9947334,201.4481109,201.4481109,202.1120155,e,1,0.658902749,None,21,1,2025-09-18_09h51.11.945,IAT_block_loop1after,,2025.1.1,None,2025-09-18 09h51.27.788015 +0800
IAT_block67.xlsx,1,胖图或中性词-按E键,瘦图或者期待词-按I键,"接下来将进行第六部分测试。
请将你左手和右手的食指部分分别放在键盘的E键和I键上。
该部分的规则为：（注意中性词和期待词的规则跟刚才一样）
胖图 或 中性词 - 按E键
瘦图 或 期待词 - 按I键
请在保证正确率的情况下尽快对其进行分类。
如果你已明白规则，请按空格开始测试。
如果有任何疑问，请联系实验员。",pic/intro6.png,pic/anjianl6.png,pic/anjianr6.png,5,5,0,,,,,space,8.074823707,None,,,,,0,5,5,5,,,,,,,,,,,,,,,,,,,,,,,,21,1,2025-09-18_09h51.11.945,IAT_block_loop1after,,2025.1.1,None,2025-09-18 09h51.27.788015 +0800
IAT_block67.xlsx,1,胖图或中性词-按E键,瘦图或者期待词-按I键,"接下来将进行第七部分测试。
请将你左手和右手的食指部分分别放在键盘的E键和I键上。
该部分流程与刚才的完全相同，规则同样为：
胖图 或 中性词 - 按E键
瘦图 或 期待词 - 按I键
请在保证正确率的情况下尽快对其进行分类。
如果你已明白规则，请按空格开始测试。
如果有任何疑问，请联系实验员。",pic/intro7.png,pic/anjianl7.png,pic/anjianr7.png,0,0,0,pic/thin3.png,i,0.796,0.622,space,0.625824374,None,i,1,0.557464249,None,0,6,6,6,0,0,0,14,205.7617167,,202.3198597,202.3265502,205.0989743,205.7286935,space,0.625824374,None,205.7573926,205.7617167,206.2615897,206.7152851,206.7152851,207.2786438,i,1,0.557464249,None,21,1,2025-09-18_09h51.11.945,IAT_block_loop1after,,2025.1.1,None,2025-09-18 09h51.27.788015 +0800
IAT_block67.xlsx,1,胖图或中性词-按E键,瘦图或者期待词-按I键,"接下来将进行第七部分测试。
请将你左手和右手的食指部分分别放在键盘的E键和I键上。
该部分流程与刚才的完全相同，规则同样为：
胖图 或 中性词 - 按E键
瘦图 或 期待词 - 按I键
请在保证正确率的情况下尽快对其进行分类。
如果你已明白规则，请按空格开始测试。
如果有任何疑问，请联系实验员。",pic/intro7.png,pic/anjianl7.png,pic/anjianr7.png,1,1,0,pic/fat1.png,e,0.796,0.528,space,0.625824374,None,e,1,0.525545916,None,0,6,6,6,0,1,1,8,207.3048063,,,,,,,,,207.3005812,207.3048063,207.81131,208.2651077,208.2651077,208.7953722,e,1,0.525545916,None,21,1,2025-09-18_09h51.11.945,IAT_block_loop1after,,2025.1.1,None,2025-09-18 09h51.27.788015 +0800
IAT_block67.xlsx,1,胖图或中性词-按E键,瘦图或者期待词-按I键,"接下来将进行第七部分测试。
请将你左手和右手的食指部分分别放在键盘的E键和I键上。
该部分流程与刚才的完全相同，规则同样为：
胖图 或 中性词 - 按E键
瘦图 或 期待词 - 按I键
请在保证正确率的情况下尽快对其进行分类。
如果你已明白规则，请按空格开始测试。
如果有任何疑问，请联系实验员。",pic/intro7.png,pic/anjianl7.png,pic/anjianr7.png,2,2,0,pic/fat2.png,e,0.796,0.528,space,0.625824374,None,e,1,0.523925875,None,0,6,6,6,0,2,2,9,208.8197335,,,,,,,,,208.8155017,208.8197335,209.3281729,209.7817385,209.7817385,210.3116689,e,1,0.523925875,None,21,1,2025-09-18_09h51.11.945,IAT_block_loop1after,,2025.1.1,None,2025-09-18 09h51.27.788015 +0800
IAT_block67.xlsx,1,胖图或中性词-按E键,瘦图或者期待词-按I键,"接下来将进行第七部分测试。
请将你左手和右手的食指部分分别放在键盘的E键和I键上。
该部分流程与刚才的完全相同，规则同样为：
胖图 或 中性词 - 按E键
瘦图 或 期待词 - 按I键
请在保证正确率的情况下尽快对其进行分类。
如果你已明白规则，请按空格开始测试。
如果有任何疑问，请联系实验员。",pic/intro7.png,pic/anjianl7.png,pic/anjianr7.png,3,3,0,pic/want2.png,i,0.5225,0.261,space,0.625824374,None,i,1,0.806284833,None,0,6,6,6,0,3,3,1,210.3320323,,,,,,,,,210.3276148,210.3320323,210.8447002,211.2983632,211.2983632,212.111611,i,1,0.806284833,None,21,1,2025-09-18_09h51.11.945,IAT_block_loop1after,,2025.1.1,None,2025-09-18 09h51.27.788015 +0800
IAT_block67.xlsx,1,胖图或中性词-按E键,瘦图或者期待词-按I键,"接下来将进行第七部分测试。
请将你左手和右手的食指部分分别放在键盘的E键和I键上。
该部分流程与刚才的完全相同，规则同样为：
胖图 或 中性词 - 按E键
瘦图 或 期待词 - 按I键
请在保证正确率的情况下尽快对其进行分类。
如果你已明白规则，请按空格开始测试。
如果有任何疑问，请联系实验员。",pic/intro7.png,pic/anjianl7.png,pic/anjianr7.png,4,4,0,pic/want3.png,i,0.5225,0.261,space,0.625824374,None,e,0,1.168646666,None,0,6,6,6,0,4,4,2,212.1314659,,,,,,,,,212.1271294,212.1314659,212.628084,213.0979165,213.0979165,214.2782928,e,0,1.168646666,None,21,1,2025-09-18_09h51.11.945,IAT_block_loop1after,,2025.1.1,None,2025-09-18 09h51.27.788015 +0800
IAT_block67.xlsx,1,胖图或中性词-按E键,瘦图或者期待词-按I键,"接下来将进行第七部分测试。
请将你左手和右手的食指部分分别放在键盘的E键和I键上。
该部分流程与刚才的完全相同，规则同样为：
胖图 或 中性词 - 按E键
瘦图 或 期待词 - 按I键
请在保证正确率的情况下尽快对其进行分类。
如果你已明白规则，请按空格开始测试。
如果有任何疑问，请联系实验员。",pic/intro7.png,pic/anjianl7.png,pic/anjianr7.png,5,5,0,pic/want4.png,i,0.5225,0.261,space,0.625824374,None,i,1,0.399814458,None,0,6,6,6,0,5,5,3,214.2980965,,,,,,,,,214.2938057,214.2980965,214.7976645,215.2647274,215.2647274,215.6783091,i,1,0.399814458,None,21,1,2025-09-18_09h51.11.945,IAT_block_loop1after,,2025.1.1,None,2025-09-18 09h51.27.788015 +0800
IAT_block67.xlsx,1,胖图或中性词-按E键,瘦图或者期待词-按I键,"接下来将进行第七部分测试。
请将你左手和右手的食指部分分别放在键盘的E键和I键上。
该部分流程与刚才的完全相同，规则同样为：
胖图 或 中性词 - 按E键
瘦图 或 期待词 - 按I键
请在保证正确率的情况下尽快对其进行分类。
如果你已明白规则，请按空格开始测试。
如果有任何疑问，请联系实验员。",pic/intro7.png,pic/anjianl7.png,pic/anjianr7.png,6,6,0,pic/thin2.png,i,0.796,0.622,space,0.625824374,None,i,1,0.571367,None,0,6,6,6,0,6,6,13,215.7042374,,,,,,,,,215.7000608,215.7042374,216.1977392,216.6651343,216.6651343,217.2449513,i,1,0.571367,None,21,1,2025-09-18_09h51.11.945,IAT_block_loop1after,,2025.1.1,None,2025-09-18 09h51.27.788015 +0800
IAT_block67.xlsx,1,胖图或中性词-按E键,瘦图或者期待词-按I键,"接下来将进行第七部分测试。
请将你左手和右手的食指部分分别放在键盘的E键和I键上。
该部分流程与刚才的完全相同，规则同样为：
胖图 或 中性词 - 按E键
瘦图 或 期待词 - 按I键
请在保证正确率的情况下尽快对其进行分类。
如果你已明白规则，请按空格开始测试。
如果有任何疑问，请联系实验员。",pic/intro7.png,pic/anjianl7.png,pic/anjianr7.png,7,7,0,pic/do2.png,e,0.5225,0.261,space,0.625824374,None,e,1,0.687813708,None,0,6,6,6,0,7,7,5,217.2636678,,,,,,,,,217.2592502,217.2636678,217.7613875,218.2447966,218.2447966,218.9449292,e,1,0.687813708,None,21,1,2025-09-18_09h51.11.945,IAT_block_loop1after,,2025.1.1,None,2025-09-18 09h51.27.788015 +0800
IAT_block67.xlsx,1,胖图或中性词-按E键,瘦图或者期待词-按I键,"接下来将进行第七部分测试。
请将你左手和右手的食指部分分别放在键盘的E键和I键上。
该部分流程与刚才的完全相同，规则同样为：
胖图 或 中性词 - 按E键
瘦图 或 期待词 - 按I键
请在保证正确率的情况下尽快对其进行分类。
如果你已明白规则，请按空格开始测试。
如果有任何疑问，请联系实验员。",pic/intro7.png,pic/anjianl7.png,pic/anjianr7.png,8,8,0,pic/want1.png,i,0.5225,0.261,space,0.625824374,None,i,1,0.710566666,None,0,6,6,6,0,8,8,0,218.9650959,,,,,,,,,218.960779,218.9650959,219.4641127,219.9448071,219.9448071,220.6615512,i,1,0.710566666,None,21,1,2025-09-18_09h51.11.945,IAT_block_loop1after,,2025.1.1,None,2025-09-18 09h51.27.788015 +0800
IAT_block67.xlsx,1,胖图或中性词-按E键,瘦图或者期待词-按I键,"接下来将进行第七部分测试。
请将你左手和右手的食指部分分别放在键盘的E键和I键上。
该部分流程与刚才的完全相同，规则同样为：
胖图 或 中性词 - 按E键
瘦图 或 期待词 - 按I键
请在保证正确率的情况下尽快对其进行分类。
如果你已明白规则，请按空格开始测试。
如果有任何疑问，请联系实验员。",pic/intro7.png,pic/anjianl7.png,pic/anjianr7.png,9,9,0,pic/do1.png,e,0.5225,0.261,space,0.625824374,None,e,1,0.655440208,None,0,6,6,6,0,9,9,4,220.6780631,,,,,,,,,220.6735332,220.6780631,221.1639451,221.6478383,221.6478383,222.3115615,e,1,0.655440208,None,21,1,2025-09-18_09h51.11.945,IAT_block_loop1after,,2025.1.1,None,2025-09-18 09h51.27.788015 +0800
IAT_block67.xlsx,1,胖图或中性词-按E键,瘦图或者期待词-按I键,"接下来将进行第七部分测试。
请将你左手和右手的食指部分分别放在键盘的E键和I键上。
该部分流程与刚才的完全相同，规则同样为：
胖图 或 中性词 - 按E键
瘦图 或 期待词 - 按I键
请在保证正确率的情况下尽快对其进行分类。
如果你已明白规则，请按空格开始测试。
如果有任何疑问，请联系实验员。",pic/intro7.png,pic/anjianl7.png,pic/anjianr7.png,10,10,0,pic/fat3.png,e,0.796,0.528,space,0.625824374,None,e,1,0.901845874,None,0,6,6,6,0,10,10,10,222.3363802,,,,,,,,,222.3320347,222.3363802,222.8447015,223.3114342,223.3114342,224.2153421,e,1,0.901845874,None,21,1,2025-09-18_09h51.11.945,IAT_block_loop1after,,2025.1.1,None,2025-09-18 09h51.27.788015 +0800
IAT_block67.xlsx,1,胖图或中性词-按E键,瘦图或者期待词-按I键,"接下来将进行第七部分测试。
请将你左手和右手的食指部分分别放在键盘的E键和I键上。
该部分流程与刚才的完全相同，规则同样为：
胖图 或 中性词 - 按E键
瘦图 或 期待词 - 按I键
请在保证正确率的情况下尽快对其进行分类。
如果你已明白规则，请按空格开始测试。
如果有任何疑问，请联系实验员。",pic/intro7.png,pic/anjianl7.png,pic/anjianr7.png,11,11,0,pic/do4.png,e,0.5225,0.261,space,0.625824374,None,e,1,0.855304541,None,0,6,6,6,0,11,11,7,224.2363618,,,,,,,,,224.2319798,224.2363618,224.7305737,225.22791,225.22791,226.0948713,e,1,0.855304541,None,21,1,2025-09-18_09h51.11.945,IAT_block_loop1after,,2025.1.1,None,2025-09-18 09h51.27.788015 +0800
IAT_block67.xlsx,1,胖图或中性词-按E键,瘦图或者期待词-按I键,"接下来将进行第七部分测试。
请将你左手和右手的食指部分分别放在键盘的E键和I键上。
该部分流程与刚才的完全相同，规则同样为：
胖图 或 中性词 - 按E键
瘦图 或 期待词 - 按I键
请在保证正确率的情况下尽快对其进行分类。
如果你已明白规则，请按空格开始测试。
如果有任何疑问，请联系实验员。",pic/intro7.png,pic/anjianl7.png,pic/anjianr7.png,12,12,0,pic/thin1.png,i,0.796,0.488,space,0.625824374,None,i,1,0.509459458,None,0,6,6,6,0,12,12,12,226.1165638,,,,,,,,,226.112327,226.1165638,226.6141922,227.0947142,227.0947142,227.6116323,i,1,0.509459458,None,21,1,2025-09-18_09h51.11.945,IAT_block_loop1after,,2025.1.1,None,2025-09-18 09h51.27.788015 +0800
IAT_block67.xlsx,1,胖图或中性词-按E键,瘦图或者期待词-按I键,"接下来将进行第七部分测试。
请将你左手和右手的食指部分分别放在键盘的E键和I键上。
该部分流程与刚才的完全相同，规则同样为：
胖图 或 中性词 - 按E键
瘦图 或 期待词 - 按I键
请在保证正确率的情况下尽快对其进行分类。
如果你已明白规则，请按空格开始测试。
如果有任何疑问，请联系实验员。",pic/intro7.png,pic/anjianl7.png,pic/anjianr7.png,13,13,0,pic/thin4.png,i,0.796,0.622,space,0.625824374,None,i,1,0.702645999,None,0,6,6,6,0,13,13,15,227.6370966,,,,,,,,,227.6327793,227.6370966,228.1315482,228.5984451,228.5984451,229.3115442,i,1,0.702645999,None,21,1,2025-09-18_09h51.11.945,IAT_block_loop1after,,2025.1.1,None,2025-09-18 09h51.27.788015 +0800
IAT_block67.xlsx,1,胖图或中性词-按E键,瘦图或者期待词-按I键,"接下来将进行第七部分测试。
请将你左手和右手的食指部分分别放在键盘的E键和I键上。
该部分流程与刚才的完全相同，规则同样为：
胖图 或 中性词 - 按E键
瘦图 或 期待词 - 按I键
请在保证正确率的情况下尽快对其进行分类。
如果你已明白规则，请按空格开始测试。
如果有任何疑问，请联系实验员。",pic/intro7.png,pic/anjianl7.png,pic/anjianr7.png,14,14,0,pic/fat4.png,e,0.796,0.528,space,0.625824374,None,e,1,0.603535583,None,0,6,6,6,0,14,14,11,229.3375513,,,,,,,,,229.3333765,229.3375513,230.0099199,230.2984552,230.2984552,230.9115845,e,1,0.603535583,None,21,1,2025-09-18_09h51.11.945,IAT_block_loop1after,,2025.1.1,None,2025-09-18 09h51.27.788015 +0800
IAT_block67.xlsx,1,胖图或中性词-按E键,瘦图或者期待词-按I键,"接下来将进行第七部分测试。
请将你左手和右手的食指部分分别放在键盘的E键和I键上。
该部分流程与刚才的完全相同，规则同样为：
胖图 或 中性词 - 按E键
瘦图 或 期待词 - 按I键
请在保证正确率的情况下尽快对其进行分类。
如果你已明白规则，请按空格开始测试。
如果有任何疑问，请联系实验员。",pic/intro7.png,pic/anjianl7.png,pic/anjianr7.png,15,15,0,pic/do3.png,e,0.5225,0.261,space,0.625824374,None,e,1,1.144610458,None,0,6,6,6,0,15,15,6,230.9355422,,,,,,,,,230.9284195,230.9355422,231.4446692,231.9113228,231.9113228,233.0615637,e,1,1.144610458,None,21,1,2025-09-18_09h51.11.945,IAT_block_loop1after,,2025.1.1,None,2025-09-18 09h51.27.788015 +0800
IAT_block67.xlsx,1,胖图或中性词-按E键,瘦图或者期待词-按I键,"接下来将进行第七部分测试。
请将你左手和右手的食指部分分别放在键盘的E键和I键上。
该部分流程与刚才的完全相同，规则同样为：
胖图 或 中性词 - 按E键
瘦图 或 期待词 - 按I键
请在保证正确率的情况下尽快对其进行分类。
如果你已明白规则，请按空格开始测试。
如果有任何疑问，请联系实验员。",pic/intro7.png,pic/anjianl7.png,pic/anjianr7.png,6,6,0,,,,,space,0.625824374,None,,,,,0,6,6,6,,,,,,,,,,,,,,,,,,,,,,,,21,1,2025-09-18_09h51.11.945,IAT_block_loop1after,,2025.1.1,None,2025-09-18 09h51.27.788015 +0800
IAT_block8.xlsx,1,回避词-按E键,中性词-按I键,"接下来将进行第八部分测试。
请将你左手和右手的食指部分分别放在键盘的E键和I键上。
该部分流程与之前相同，只是规则发生了轻微的变化
规则为：
回避词 - 按E键
中性词 - 按I键
请在保证正确率的情况下尽快对其进行分类。
如果你已明白规则，请按空格开始测试。
如果有任何疑问，请联系实验员。",pic/intro8.png,pic/anjianl8.png,pic/anjianr8.png,0,0,0,pic/avoid4.png,e,0.5225,0.261,space,4.929857457,None,e,1,1.089396166,None,0,7,7,7,0,0,0,7,241.0188715,,233.2960308,233.3030805,236.0611018,240.9950822,space,4.929857457,None,241.014407,241.0188715,241.5280417,241.9812426,241.9812426,243.0781415,e,1,1.089396166,None,21,1,2025-09-18_09h51.11.945,IAT_block_loop1after,,2025.1.1,None,2025-09-18 09h51.27.788015 +0800
IAT_block8.xlsx,1,回避词-按E键,中性词-按I键,"接下来将进行第八部分测试。
请将你左手和右手的食指部分分别放在键盘的E键和I键上。
该部分流程与之前相同，只是规则发生了轻微的变化
规则为：
回避词 - 按E键
中性词 - 按I键
请在保证正确率的情况下尽快对其进行分类。
如果你已明白规则，请按空格开始测试。
如果有任何疑问，请联系实验员。",pic/intro8.png,pic/anjianl8.png,pic/anjianr8.png,1,1,0,pic/do1.png,i,0.5225,0.261,space,4.929857457,None,i,1,1.410555832,None,0,7,7,7,0,1,1,0,243.1014883,,,,,,,,,243.0971464,243.1014883,243.6113306,244.0780102,244.0780102,245.4947745,i,1,1.410555832,None,21,1,2025-09-18_09h51.11.945,IAT_block_loop1after,,2025.1.1,None,2025-09-18 09h51.27.788015 +0800
IAT_block8.xlsx,1,回避词-按E键,中性词-按I键,"接下来将进行第八部分测试。
请将你左手和右手的食指部分分别放在键盘的E键和I键上。
该部分流程与之前相同，只是规则发生了轻微的变化
规则为：
回避词 - 按E键
中性词 - 按I键
请在保证正确率的情况下尽快对其进行分类。
如果你已明白规则，请按空格开始测试。
如果有任何疑问，请联系实验员。",pic/intro8.png,pic/anjianl8.png,pic/anjianr8.png,2,2,0,pic/avoid3.png,e,0.5225,0.261,space,4.929857457,None,e,1,2.226305833,None,0,7,7,7,0,2,2,14,245.5120597,,,,,,,,,245.5073492,245.5120597,246.0111811,246.481105,246.481105,248.7118434,e,1,2.226305833,None,21,1,2025-09-18_09h51.11.945,IAT_block_loop1after,,2025.1.1,None,2025-09-18 09h51.27.788015 +0800
IAT_block8.xlsx,1,回避词-按E键,中性词-按I键,"接下来将进行第八部分测试。
请将你左手和右手的食指部分分别放在键盘的E键和I键上。
该部分流程与之前相同，只是规则发生了轻微的变化
规则为：
回避词 - 按E键
中性词 - 按I键
请在保证正确率的情况下尽快对其进行分类。
如果你已明白规则，请按空格开始测试。
如果有任何疑问，请联系实验员。",pic/intro8.png,pic/anjianl8.png,pic/anjianr8.png,3,3,0,pic/avoid1.png,e,0.5225,0.261,space,4.929857457,None,e,1,0.959502124,None,0,7,7,7,0,3,3,4,248.7309205,,,,,,,,,248.726089,248.7309205,249.2444908,249.6978996,249.6978996,250.6618019,e,1,0.959502124,None,21,1,2025-09-18_09h51.11.945,IAT_block_loop1after,,2025.1.1,None,2025-09-18 09h51.27.788015 +0800
IAT_block8.xlsx,1,回避词-按E键,中性词-按I键,"接下来将进行第八部分测试。
请将你左手和右手的食指部分分别放在键盘的E键和I键上。
该部分流程与之前相同，只是规则发生了轻微的变化
规则为：
回避词 - 按E键
中性词 - 按I键
请在保证正确率的情况下尽快对其进行分类。
如果你已明白规则，请按空格开始测试。
如果有任何疑问，请联系实验员。",pic/intro8.png,pic/anjianl8.png,pic/anjianr8.png,4,4,0,pic/avoid3.png,e,0.5225,0.261,space,4.929857457,None,e,1,1.371463208,None,0,7,7,7,0,4,4,6,250.6805915,,,,,,,,,250.6760487,250.6805915,251.1808143,251.647827,251.647827,253.0280767,e,1,1.371463208,None,21,1,2025-09-18_09h51.11.945,IAT_block_loop1after,,2025.1.1,None,2025-09-18 09h51.27.788015 +0800
IAT_block8.xlsx,1,回避词-按E键,中性词-按I键,"接下来将进行第八部分测试。
请将你左手和右手的食指部分分别放在键盘的E键和I键上。
该部分流程与之前相同，只是规则发生了轻微的变化
规则为：
回避词 - 按E键
中性词 - 按I键
请在保证正确率的情况下尽快对其进行分类。
如果你已明白规则，请按空格开始测试。
如果有任何疑问，请联系实验员。",pic/intro8.png,pic/anjianl8.png,pic/anjianr8.png,5,5,0,pic/do4.png,i,0.5225,0.261,space,4.929857457,None,i,1,1.174388708,None,0,7,7,7,0,5,5,3,253.0476597,,,,,,,,,253.0432719,253.0476597,253.5473254,254.027773,254.027773,255.2114127,i,1,1.174388708,None,21,1,2025-09-18_09h51.11.945,IAT_block_loop1after,,2025.1.1,None,2025-09-18 09h51.27.788015 +0800
IAT_block8.xlsx,1,回避词-按E键,中性词-按I键,"接下来将进行第八部分测试。
请将你左手和右手的食指部分分别放在键盘的E键和I键上。
该部分流程与之前相同，只是规则发生了轻微的变化
规则为：
回避词 - 按E键
中性词 - 按I键
请在保证正确率的情况下尽快对其进行分类。
如果你已明白规则，请按空格开始测试。
如果有任何疑问，请联系实验员。",pic/intro8.png,pic/anjianl8.png,pic/anjianr8.png,6,6,0,pic/do2.png,i,0.5225,0.261,space,4.929857457,None,i,1,0.6843445,None,0,7,7,7,0,6,6,1,255.2301868,,,,,,,,,255.2245446,255.2301868,255.7445306,256.1977731,256.1977731,256.8946662,i,1,0.6843445,None,21,1,2025-09-18_09h51.11.945,IAT_block_loop1after,,2025.1.1,None,2025-09-18 09h51.27.788015 +0800
IAT_block8.xlsx,1,回避词-按E键,中性词-按I键,"接下来将进行第八部分测试。
请将你左手和右手的食指部分分别放在键盘的E键和I键上。
该部分流程与之前相同，只是规则发生了轻微的变化
规则为：
回避词 - 按E键
中性词 - 按I键
请在保证正确率的情况下尽快对其进行分类。
如果你已明白规则，请按空格开始测试。
如果有任何疑问，请联系实验员。",pic/intro8.png,pic/anjianl8.png,pic/anjianr8.png,7,7,0,pic/avoid1.png,e,0.5225,0.261,space,4.929857457,None,e,1,0.629526916,None,0,7,7,7,0,7,7,12,256.9151087,,,,,,,,,256.9106417,256.9151087,257.4139116,257.8945549,257.8945549,258.5281747,e,1,0.629526916,None,21,1,2025-09-18_09h51.11.945,IAT_block_loop1after,,2025.1.1,None,2025-09-18 09h51.27.788015 +0800
IAT_block8.xlsx,1,回避词-按E键,中性词-按I键,"接下来将进行第八部分测试。
请将你左手和右手的食指部分分别放在键盘的E键和I键上。
该部分流程与之前相同，只是规则发生了轻微的变化
规则为：
回避词 - 按E键
中性词 - 按I键
请在保证正确率的情况下尽快对其进行分类。
如果你已明白规则，请按空格开始测试。
如果有任何疑问，请联系实验员。",pic/intro8.png,pic/anjianl8.png,pic/anjianr8.png,8,8,0,pic/do2.png,i,0.5225,0.261,space,4.929857457,None,i,1,0.652138582,None,0,7,7,7,0,8,8,9,258.5471312,,,,,,,,,258.542756,258.5471312,259.0445131,259.527902,259.527902,260.1949584,i,1,0.652138582,None,21,1,2025-09-18_09h51.11.945,IAT_block_loop1after,,2025.1.1,None,2025-09-18 09h51.27.788015 +0800
IAT_block8.xlsx,1,回避词-按E键,中性词-按I键,"接下来将进行第八部分测试。
请将你左手和右手的食指部分分别放在键盘的E键和I键上。
该部分流程与之前相同，只是规则发生了轻微的变化
规则为：
回避词 - 按E键
中性词 - 按I键
请在保证正确率的情况下尽快对其进行分类。
如果你已明白规则，请按空格开始测试。
如果有任何疑问，请联系实验员。",pic/intro8.png,pic/anjianl8.png,pic/anjianr8.png,9,9,0,pic/do4.png,i,0.5225,0.261,space,4.929857457,None,i,1,0.960547499,None,0,7,7,7,0,9,9,11,260.213422,,,,,,,,,260.2076738,260.213422,260.7111945,261.1943982,261.1943982,262.161373,i,1,0.960547499,None,21,1,2025-09-18_09h51.11.945,IAT_block_loop1after,,2025.1.1,None,2025-09-18 09h51.27.788015 +0800
IAT_block8.xlsx,1,回避词-按E键,中性词-按I键,"接下来将进行第八部分测试。
请将你左手和右手的食指部分分别放在键盘的E键和I键上。
该部分流程与之前相同，只是规则发生了轻微的变化
规则为：
回避词 - 按E键
中性词 - 按I键
请在保证正确率的情况下尽快对其进行分类。
如果你已明白规则，请按空格开始测试。
如果有任何疑问，请联系实验员。",pic/intro8.png,pic/anjianl8.png,pic/anjianr8.png,10,10,0,pic/avoid2.png,e,0.5225,0.261,space,4.929857457,None,e,1,0.713837708,None,0,7,7,7,0,10,10,13,262.1828773,,,,,,,,,262.178437,262.1828773,262.6777037,263.1611345,263.1611345,263.8782208,e,1,0.713837708,None,21,1,2025-09-18_09h51.11.945,IAT_block_loop1after,,2025.1.1,None,2025-09-18 09h51.27.788015 +0800
IAT_block8.xlsx,1,回避词-按E键,中性词-按I键,"接下来将进行第八部分测试。
请将你左手和右手的食指部分分别放在键盘的E键和I键上。
该部分流程与之前相同，只是规则发生了轻微的变化
规则为：
回避词 - 按E键
中性词 - 按I键
请在保证正确率的情况下尽快对其进行分类。
如果你已明白规则，请按空格开始测试。
如果有任何疑问，请联系实验员。",pic/intro8.png,pic/anjianl8.png,pic/anjianr8.png,11,11,0,pic/do3.png,i,0.5225,0.261,space,4.929857457,None,i,1,0.778430249,None,0,7,7,7,0,11,11,10,263.8967296,,,,,,,,,263.8922688,263.8967296,264.3944875,264.8644634,264.8644634,265.6450199,i,1,0.778430249,None,21,1,2025-09-18_09h51.11.945,IAT_block_loop1after,,2025.1.1,None,2025-09-18 09h51.27.788015 +0800
IAT_block8.xlsx,1,回避词-按E键,中性词-按I键,"接下来将进行第八部分测试。
请将你左手和右手的食指部分分别放在键盘的E键和I键上。
该部分流程与之前相同，只是规则发生了轻微的变化
规则为：
回避词 - 按E键
中性词 - 按I键
请在保证正确率的情况下尽快对其进行分类。
如果你已明白规则，请按空格开始测试。
如果有任何疑问，请联系实验员。",pic/intro8.png,pic/anjianl8.png,pic/anjianr8.png,12,12,0,pic/do1.png,i,0.5225,0.261,space,4.929857457,None,i,1,1.085739625,None,0,7,7,7,0,12,12,8,265.6622904,,,,,,,,,265.6573282,265.6622904,266.163819,266.631054,266.631054,267.7279598,i,1,1.085739625,None,21,1,2025-09-18_09h51.11.945,IAT_block_loop1after,,2025.1.1,None,2025-09-18 09h51.27.788015 +0800
IAT_block8.xlsx,1,回避词-按E键,中性词-按I键,"接下来将进行第八部分测试。
请将你左手和右手的食指部分分别放在键盘的E键和I键上。
该部分流程与之前相同，只是规则发生了轻微的变化
规则为：
回避词 - 按E键
中性词 - 按I键
请在保证正确率的情况下尽快对其进行分类。
如果你已明白规则，请按空格开始测试。
如果有任何疑问，请联系实验员。",pic/intro8.png,pic/anjianl8.png,pic/anjianr8.png,13,13,0,pic/avoid4.png,e,0.5225,0.261,space,4.929857457,None,e,1,0.632966207,None,0,7,7,7,0,13,13,15,267.7491507,,,,,,,,,267.7447735,267.7491507,268.2471656,268.7278606,268.7278606,269.3616159,e,1,0.632966207,None,21,1,2025-09-18_09h51.11.945,IAT_block_loop1after,,2025.1.1,None,2025-09-18 09h51.27.788015 +0800
IAT_block8.xlsx,1,回避词-按E键,中性词-按I键,"接下来将进行第八部分测试。
请将你左手和右手的食指部分分别放在键盘的E键和I键上。
该部分流程与之前相同，只是规则发生了轻微的变化
规则为：
回避词 - 按E键
中性词 - 按I键
请在保证正确率的情况下尽快对其进行分类。
如果你已明白规则，请按空格开始测试。
如果有任何疑问，请联系实验员。",pic/intro8.png,pic/anjianl8.png,pic/anjianr8.png,14,14,0,pic/do3.png,i,0.5225,0.261,space,4.929857457,None,i,1,0.6087625,None,0,7,7,7,0,14,14,2,269.3811273,,,,,,,,,269.3767819,269.3811273,269.877532,270.3609502,270.3609502,270.9779453,i,1,0.6087625,None,21,1,2025-09-18_09h51.11.945,IAT_block_loop1after,,2025.1.1,None,2025-09-18 09h51.27.788015 +0800
IAT_block8.xlsx,1,回避词-按E键,中性词-按I键,"接下来将进行第八部分测试。
请将你左手和右手的食指部分分别放在键盘的E键和I键上。
该部分流程与之前相同，只是规则发生了轻微的变化
规则为：
回避词 - 按E键
中性词 - 按I键
请在保证正确率的情况下尽快对其进行分类。
如果你已明白规则，请按空格开始测试。
如果有任何疑问，请联系实验员。",pic/intro8.png,pic/anjianl8.png,pic/anjianr8.png,15,15,0,pic/avoid2.png,e,0.5225,0.261,space,4.929857457,None,e,1,0.640321957,None,0,7,7,7,0,15,15,5,270.9982715,,,,,,,,,270.993885,270.9982715,271.4944069,271.9643303,271.9643303,272.6112286,e,1,0.640321957,None,21,1,2025-09-18_09h51.11.945,IAT_block_loop1after,,2025.1.1,None,2025-09-18 09h51.27.788015 +0800
IAT_block8.xlsx,1,回避词-按E键,中性词-按I键,"接下来将进行第八部分测试。
请将你左手和右手的食指部分分别放在键盘的E键和I键上。
该部分流程与之前相同，只是规则发生了轻微的变化
规则为：
回避词 - 按E键
中性词 - 按I键
请在保证正确率的情况下尽快对其进行分类。
如果你已明白规则，请按空格开始测试。
如果有任何疑问，请联系实验员。",pic/intro8.png,pic/anjianl8.png,pic/anjianr8.png,7,7,0,,,,,space,4.929857457,None,,,,,0,7,7,7,,,,,,,,,,,,,,,,,,,,,,,,21,1,2025-09-18_09h51.11.945,IAT_block_loop1after,,2025.1.1,None,2025-09-18 09h51.27.788015 +0800
IAT_block910.xlsx,1,胖图或回避词-按E键,瘦图或者中性词-按I键,"接下来将进行第九部分测试。
请将你左手和右手的食指部分分别放在键盘的E键和I键上。
该部分的规则为：（注意回避词和中性词的规则跟刚才一样）
胖图 或 回避词 - 按E键
瘦图 或 中性词 - 按I键
请在保证正确率的情况下尽快对其进行分类。
如果你已明白规则，请按空格开始测试。
如果有任何疑问，请联系实验员。",pic/intro9.png,pic/anjianl9.png,pic/anjianr9.png,0,0,0,pic/thin2.png,i,0.796,0.622,space,8.707154416,None,i,1,0.754444957,None,0,8,8,8,0,0,0,13,284.3659559,,272.8411581,272.8480003,275.611114,284.3278899,space,8.707154416,None,284.3614252,284.3659559,284.8777108,285.314772,285.314772,286.0778666,i,1,0.754444957,None,21,1,2025-09-18_09h51.11.945,IAT_block_loop1after,,2025.1.1,None,2025-09-18 09h51.27.788015 +0800
IAT_block910.xlsx,1,胖图或回避词-按E键,瘦图或者中性词-按I键,"接下来将进行第九部分测试。
请将你左手和右手的食指部分分别放在键盘的E键和I键上。
该部分的规则为：（注意回避词和中性词的规则跟刚才一样）
胖图 或 回避词 - 按E键
瘦图 或 中性词 - 按I键
请在保证正确率的情况下尽快对其进行分类。
如果你已明白规则，请按空格开始测试。
如果有任何疑问，请联系实验员。",pic/intro9.png,pic/anjianl9.png,pic/anjianr9.png,1,1,0,pic/fat2.png,e,0.796,0.528,space,8.707154416,None,e,1,0.639524083,None,0,8,8,8,0,1,1,9,286.1033086,,,,,,,,,286.0990787,286.1033086,286.6109438,287.0646478,287.0646478,287.7112032,e,1,0.639524083,None,21,1,2025-09-18_09h51.11.945,IAT_block_loop1after,,2025.1.1,None,2025-09-18 09h51.27.788015 +0800
IAT_block910.xlsx,1,胖图或回避词-按E键,瘦图或者中性词-按I键,"接下来将进行第九部分测试。
请将你左手和右手的食指部分分别放在键盘的E键和I键上。
该部分的规则为：（注意回避词和中性词的规则跟刚才一样）
胖图 或 回避词 - 按E键
瘦图 或 中性词 - 按I键
请在保证正确率的情况下尽快对其进行分类。
如果你已明白规则，请按空格开始测试。
如果有任何疑问，请联系实验员。",pic/intro9.png,pic/anjianl9.png,pic/anjianr9.png,2,2,0,pic/thin4.png,i,0.796,0.622,space,8.707154416,None,i,1,0.542090083,None,0,8,8,8,0,2,2,15,287.737119,,,,,,,,,287.7329116,287.737119,288.2302175,288.6980298,288.6980298,289.2448943,i,1,0.542090083,None,21,1,2025-09-18_09h51.11.945,IAT_block_loop1after,,2025.1.1,None,2025-09-18 09h51.27.788015 +0800
IAT_block910.xlsx,1,胖图或回避词-按E键,瘦图或者中性词-按I键,"接下来将进行第九部分测试。
请将你左手和右手的食指部分分别放在键盘的E键和I键上。
该部分的规则为：（注意回避词和中性词的规则跟刚才一样）
胖图 或 回避词 - 按E键
瘦图 或 中性词 - 按I键
请在保证正确率的情况下尽快对其进行分类。
如果你已明白规则，请按空格开始测试。
如果有任何疑问，请联系实验员。",pic/intro9.png,pic/anjianl9.png,pic/anjianr9.png,3,3,0,pic/avoid1.png,e,0.5225,0.261,space,8.707154416,None,e,1,0.696781041,None,0,8,8,8,0,3,3,4,289.2644944,,,,,,,,,289.2601037,289.2644944,289.7610231,290.2442726,290.2442726,290.9447408,e,1,0.696781041,None,21,1,2025-09-18_09h51.11.945,IAT_block_loop1after,,2025.1.1,None,2025-09-18 09h51.27.788015 +0800
IAT_block910.xlsx,1,胖图或回避词-按E键,瘦图或者中性词-按I键,"接下来将进行第九部分测试。
请将你左手和右手的食指部分分别放在键盘的E键和I键上。
该部分的规则为：（注意回避词和中性词的规则跟刚才一样）
胖图 或 回避词 - 按E键
瘦图 或 中性词 - 按I键
请在保证正确率的情况下尽快对其进行分类。
如果你已明白规则，请按空格开始测试。
如果有任何疑问，请联系实验员。",pic/intro9.png,pic/anjianl9.png,pic/anjianr9.png,4,4,0,pic/thin1.png,i,0.796,0.488,space,8.707154416,None,i,1,0.794236166,None,0,8,8,8,0,4,4,12,290.9670489,,,,,,,,,290.9627325,290.9670489,291.463757,291.932758,291.932758,292.7281837,i,1,0.794236166,None,21,1,2025-09-18_09h51.11.945,IAT_block_loop1after,,2025.1.1,None,2025-09-18 09h51.27.788015 +0800
IAT_block910.xlsx,1,胖图或回避词-按E键,瘦图或者中性词-按I键,"接下来将进行第九部分测试。
请将你左手和右手的食指部分分别放在键盘的E键和I键上。
该部分的规则为：（注意回避词和中性词的规则跟刚才一样）
胖图 或 回避词 - 按E键
瘦图 或 中性词 - 按I键
请在保证正确率的情况下尽快对其进行分类。
如果你已明白规则，请按空格开始测试。
如果有任何疑问，请联系实验员。",pic/intro9.png,pic/anjianl9.png,pic/anjianr9.png,5,5,0,pic/fat3.png,e,0.796,0.528,space,8.707154416,None,e,1,0.651284874,None,0,8,8,8,0,5,5,10,292.7488163,,,,,,,,,292.7443678,292.7488163,293.2468736,293.7276938,293.7276938,294.3948902,e,1,0.651284874,None,21,1,2025-09-18_09h51.11.945,IAT_block_loop1after,,2025.1.1,None,2025-09-18 09h51.27.788015 +0800
IAT_block910.xlsx,1,胖图或回避词-按E键,瘦图或者中性词-按I键,"接下来将进行第九部分测试。
请将你左手和右手的食指部分分别放在键盘的E键和I键上。
该部分的规则为：（注意回避词和中性词的规则跟刚才一样）
胖图 或 回避词 - 按E键
瘦图 或 中性词 - 按I键
请在保证正确率的情况下尽快对其进行分类。
如果你已明白规则，请按空格开始测试。
如果有任何疑问，请联系实验员。",pic/intro9.png,pic/anjianl9.png,pic/anjianr9.png,6,6,0,pic/do4.png,i,0.5225,0.261,space,8.707154416,None,i,1,0.665642208,None,0,8,8,8,0,6,6,3,294.41925,,,,,,,,,294.4146468,294.41925,294.9106827,295.3942327,295.3942327,296.0616171,i,1,0.665642208,None,21,1,2025-09-18_09h51.11.945,IAT_block_loop1after,,2025.1.1,None,2025-09-18 09h51.27.788015 +0800
IAT_block910.xlsx,1,胖图或回避词-按E键,瘦图或者中性词-按I键,"接下来将进行第九部分测试。
请将你左手和右手的食指部分分别放在键盘的E键和I键上。
该部分的规则为：（注意回避词和中性词的规则跟刚才一样）
胖图 或 回避词 - 按E键
瘦图 或 中性词 - 按I键
请在保证正确率的情况下尽快对其进行分类。
如果你已明白规则，请按空格开始测试。
如果有任何疑问，请联系实验员。",pic/intro9.png,pic/anjianl9.png,pic/anjianr9.png,7,7,0,pic/avoid2.png,e,0.5225,0.261,space,8.707154416,None,e,1,0.586829833,None,0,8,8,8,0,7,7,5,296.0849947,,,,,,,,,296.0786237,296.0849947,296.5804381,297.061034,297.061034,297.6611011,e,1,0.586829833,None,21,1,2025-09-18_09h51.11.945,IAT_block_loop1after,,2025.1.1,None,2025-09-18 09h51.27.788015 +0800
IAT_block910.xlsx,1,胖图或回避词-按E键,瘦图或者中性词-按I键,"接下来将进行第九部分测试。
请将你左手和右手的食指部分分别放在键盘的E键和I键上。
该部分的规则为：（注意回避词和中性词的规则跟刚才一样）
胖图 或 回避词 - 按E键
瘦图 或 中性词 - 按I键
请在保证正确率的情况下尽快对其进行分类。
如果你已明白规则，请按空格开始测试。
如果有任何疑问，请联系实验员。",pic/intro9.png,pic/anjianl9.png,pic/anjianr9.png,8,8,0,pic/avoid3.png,e,0.5225,0.261,space,8.707154416,None,e,1,0.730363207,None,0,8,8,8,0,8,8,6,297.6779045,,,,,,,,,297.6728803,297.6779045,298.1638078,298.6473938,298.6473938,299.3948103,e,1,0.730363207,None,21,1,2025-09-18_09h51.11.945,IAT_block_loop1after,,2025.1.1,None,2025-09-18 09h51.27.788015 +0800
IAT_block910.xlsx,1,胖图或回避词-按E键,瘦图或者中性词-按I键,"接下来将进行第九部分测试。
请将你左手和右手的食指部分分别放在键盘的E键和I键上。
该部分的规则为：（注意回避词和中性词的规则跟刚才一样）
胖图 或 回避词 - 按E键
瘦图 或 中性词 - 按I键
请在保证正确率的情况下尽快对其进行分类。
如果你已明白规则，请按空格开始测试。
如果有任何疑问，请联系实验员。",pic/intro9.png,pic/anjianl9.png,pic/anjianr9.png,9,9,0,pic/do3.png,i,0.5225,0.261,space,8.707154416,None,i,1,0.695459249,None,0,8,8,8,0,9,9,2,299.4157277,,,,,,,,,299.4112522,299.4157277,299.9135059,300.3942872,300.3942872,301.0946749,i,1,0.695459249,None,21,1,2025-09-18_09h51.11.945,IAT_block_loop1after,,2025.1.1,None,2025-09-18 09h51.27.788015 +0800
IAT_block910.xlsx,1,胖图或回避词-按E键,瘦图或者中性词-按I键,"接下来将进行第九部分测试。
请将你左手和右手的食指部分分别放在键盘的E键和I键上。
该部分的规则为：（注意回避词和中性词的规则跟刚才一样）
胖图 或 回避词 - 按E键
瘦图 或 中性词 - 按I键
请在保证正确率的情况下尽快对其进行分类。
如果你已明白规则，请按空格开始测试。
如果有任何疑问，请联系实验员。",pic/intro9.png,pic/anjianl9.png,pic/anjianr9.png,10,10,0,pic/do1.png,i,0.5225,0.261,space,8.707154416,None,i,1,0.857935332,None,0,8,8,8,0,10,10,0,301.1166712,,,,,,,,,301.1122761,301.1166712,301.610701,302.0807524,302.0807524,302.94477,i,1,0.857935332,None,21,1,2025-09-18_09h51.11.945,IAT_block_loop1after,,2025.1.1,None,2025-09-18 09h51.27.788015 +0800
IAT_block910.xlsx,1,胖图或回避词-按E键,瘦图或者中性词-按I键,"接下来将进行第九部分测试。
请将你左手和右手的食指部分分别放在键盘的E键和I键上。
该部分的规则为：（注意回避词和中性词的规则跟刚才一样）
胖图 或 回避词 - 按E键
瘦图 或 中性词 - 按I键
请在保证正确率的情况下尽快对其进行分类。
如果你已明白规则，请按空格开始测试。
如果有任何疑问，请联系实验员。",pic/intro9.png,pic/anjianl9.png,pic/anjianr9.png,11,11,0,pic/avoid4.png,e,0.5225,0.261,space,8.707154416,None,e,1,0.574969458,None,0,8,8,8,0,11,11,7,302.9676639,,,,,,,,,302.9615089,302.9676639,303.4636019,303.9306244,303.9306244,304.5110228,e,1,0.574969458,None,21,1,2025-09-18_09h51.11.945,IAT_block_loop1after,,2025.1.1,None,2025-09-18 09h51.27.788015 +0800
IAT_block910.xlsx,1,胖图或回避词-按E键,瘦图或者中性词-按I键,"接下来将进行第九部分测试。
请将你左手和右手的食指部分分别放在键盘的E键和I键上。
该部分的规则为：（注意回避词和中性词的规则跟刚才一样）
胖图 或 回避词 - 按E键
瘦图 或 中性词 - 按I键
请在保证正确率的情况下尽快对其进行分类。
如果你已明白规则，请按空格开始测试。
如果有任何疑问，请联系实验员。",pic/intro9.png,pic/anjianl9.png,pic/anjianr9.png,12,12,0,pic/do2.png,i,0.5225,0.261,space,8.707154416,None,i,1,0.585035249,None,0,8,8,8,0,12,12,1,304.5291854,,,,,,,,,304.5239312,304.5291854,305.0302659,305.4974736,305.4974736,306.0943914,i,1,0.585035249,None,21,1,2025-09-18_09h51.11.945,IAT_block_loop1after,,2025.1.1,None,2025-09-18 09h51.27.788015 +0800
IAT_block910.xlsx,1,胖图或回避词-按E键,瘦图或者中性词-按I键,"接下来将进行第九部分测试。
请将你左手和右手的食指部分分别放在键盘的E键和I键上。
该部分的规则为：（注意回避词和中性词的规则跟刚才一样）
胖图 或 回避词 - 按E键
瘦图 或 中性词 - 按I键
请在保证正确率的情况下尽快对其进行分类。
如果你已明白规则，请按空格开始测试。
如果有任何疑问，请联系实验员。",pic/intro9.png,pic/anjianl9.png,pic/anjianr9.png,13,13,0,pic/fat1.png,e,0.796,0.528,space,8.707154416,None,e,1,0.912440249,None,0,8,8,8,0,13,13,8,306.1194133,,,,,,,,,306.1152568,306.1194133,306.6275553,307.0941326,307.0941326,308.0114098,e,1,0.912440249,None,21,1,2025-09-18_09h51.11.945,IAT_block_loop1after,,2025.1.1,None,2025-09-18 09h51.27.788015 +0800
IAT_block910.xlsx,1,胖图或回避词-按E键,瘦图或者中性词-按I键,"接下来将进行第九部分测试。
请将你左手和右手的食指部分分别放在键盘的E键和I键上。
该部分的规则为：（注意回避词和中性词的规则跟刚才一样）
胖图 或 回避词 - 按E键
瘦图 或 中性词 - 按I键
请在保证正确率的情况下尽快对其进行分类。
如果你已明白规则，请按空格开始测试。
如果有任何疑问，请联系实验员。",pic/intro9.png,pic/anjianl9.png,pic/anjianr9.png,14,14,0,pic/thin3.png,i,0.796,0.622,space,8.707154416,None,i,1,0.549531499,None,0,8,8,8,0,14,14,14,308.0371047,,,,,,,,,308.0328813,308.0371047,308.5302521,308.9979216,308.9979216,309.5483655,i,1,0.549531499,None,21,1,2025-09-18_09h51.11.945,IAT_block_loop1after,,2025.1.1,None,2025-09-18 09h51.27.788015 +0800
IAT_block910.xlsx,1,胖图或回避词-按E键,瘦图或者中性词-按I键,"接下来将进行第九部分测试。
请将你左手和右手的食指部分分别放在键盘的E键和I键上。
该部分的规则为：（注意回避词和中性词的规则跟刚才一样）
胖图 或 回避词 - 按E键
瘦图 或 中性词 - 按I键
请在保证正确率的情况下尽快对其进行分类。
如果你已明白规则，请按空格开始测试。
如果有任何疑问，请联系实验员。",pic/intro9.png,pic/anjianl9.png,pic/anjianr9.png,15,15,0,pic/fat4.png,e,0.796,0.528,space,8.707154416,None,e,1,0.554587583,None,0,8,8,8,0,15,15,11,309.5704176,,,,,,,,,309.5662722,309.5704176,310.0775439,310.5477586,310.5477586,311.1110185,e,1,0.554587583,None,21,1,2025-09-18_09h51.11.945,IAT_block_loop1after,,2025.1.1,None,2025-09-18 09h51.27.788015 +0800
IAT_block910.xlsx,1,胖图或回避词-按E键,瘦图或者中性词-按I键,"接下来将进行第九部分测试。
请将你左手和右手的食指部分分别放在键盘的E键和I键上。
该部分的规则为：（注意回避词和中性词的规则跟刚才一样）
胖图 或 回避词 - 按E键
瘦图 或 中性词 - 按I键
请在保证正确率的情况下尽快对其进行分类。
如果你已明白规则，请按空格开始测试。
如果有任何疑问，请联系实验员。",pic/intro9.png,pic/anjianl9.png,pic/anjianr9.png,8,8,0,,,,,space,8.707154416,None,,,,,0,8,8,8,,,,,,,,,,,,,,,,,,,,,,,,21,1,2025-09-18_09h51.11.945,IAT_block_loop1after,,2025.1.1,None,2025-09-18 09h51.27.788015 +0800
IAT_block910.xlsx,1,胖图或回避词-按E键,瘦图或者中性词-按I键,"接下来将进行第十部分测试。
请将你左手和右手的食指部分分别放在键盘的E键和I键上。
该部分流程与刚才的完全相同，规则同样为：
胖图 或 回避词 - 按E键
瘦图 或 中性词 - 按I键
请在保证正确率的情况下尽快对其进行分类。
如果你已明白规则，请按空格开始测试。
如果有任何疑问，请联系实验员。",pic/intro10.png,pic/anjianl10.png,pic/anjianr10.png,0,0,0,pic/thin1.png,i,0.796,0.488,space,2.319023125,None,i,1,0.490837957,None,0,9,9,9,0,0,0,12,316.4591275,,311.3214998,311.3276936,314.0981616,316.4275617,space,2.319023125,None,316.4547425,316.4591275,316.9607781,317.4274078,317.4274078,317.9276367,i,1,0.490837957,None,21,1,2025-09-18_09h51.11.945,IAT_block_loop1after,,2025.1.1,None,2025-09-18 09h51.27.788015 +0800
IAT_block910.xlsx,1,胖图或回避词-按E键,瘦图或者中性词-按I键,"接下来将进行第十部分测试。
请将你左手和右手的食指部分分别放在键盘的E键和I键上。
该部分流程与刚才的完全相同，规则同样为：
胖图 或 回避词 - 按E键
瘦图 或 中性词 - 按I键
请在保证正确率的情况下尽快对其进行分类。
如果你已明白规则，请按空格开始测试。
如果有任何疑问，请联系实验员。",pic/intro10.png,pic/anjianl10.png,pic/anjianr10.png,1,1,0,pic/do3.png,i,0.5225,0.261,space,2.319023125,None,i,1,0.698951749,None,0,9,9,9,0,1,1,2,317.948546,,,,,,,,,317.9441845,317.948546,318.4468257,318.9142387,318.9142387,319.6145737,i,1,0.698951749,None,21,1,2025-09-18_09h51.11.945,IAT_block_loop1after,,2025.1.1,None,2025-09-18 09h51.27.788015 +0800
IAT_block910.xlsx,1,胖图或回避词-按E键,瘦图或者中性词-按I键,"接下来将进行第十部分测试。
请将你左手和右手的食指部分分别放在键盘的E键和I键上。
该部分流程与刚才的完全相同，规则同样为：
胖图 或 回避词 - 按E键
瘦图 或 中性词 - 按I键
请在保证正确率的情况下尽快对其进行分类。
如果你已明白规则，请按空格开始测试。
如果有任何疑问，请联系实验员。",pic/intro10.png,pic/anjianl10.png,pic/anjianr10.png,2,2,0,pic/thin2.png,i,0.796,0.622,space,2.319023125,None,i,1,0.514569749,None,0,9,9,9,0,2,2,13,319.6428423,,,,,,,,,319.63855,319.6428423,320.1302105,320.6274484,320.6274484,321.1447376,i,1,0.514569749,None,21,1,2025-09-18_09h51.11.945,IAT_block_loop1after,,2025.1.1,None,2025-09-18 09h51.27.788015 +0800
IAT_block910.xlsx,1,胖图或回避词-按E键,瘦图或者中性词-按I键,"接下来将进行第十部分测试。
请将你左手和右手的食指部分分别放在键盘的E键和I键上。
该部分流程与刚才的完全相同，规则同样为：
胖图 或 回避词 - 按E键
瘦图 或 中性词 - 按I键
请在保证正确率的情况下尽快对其进行分类。
如果你已明白规则，请按空格开始测试。
如果有任何疑问，请联系实验员。",pic/intro10.png,pic/anjianl10.png,pic/anjianr10.png,3,3,0,pic/fat2.png,e,0.796,0.528,space,2.319023125,None,e,1,0.489133499,None,0,9,9,9,0,3,3,9,321.1665759,,,,,,,,,321.1623503,321.1665759,321.6635511,322.1308932,322.1308932,322.627635,e,1,0.489133499,None,21,1,2025-09-18_09h51.11.945,IAT_block_loop1after,,2025.1.1,None,2025-09-18 09h51.27.788015 +0800
IAT_block910.xlsx,1,胖图或回避词-按E键,瘦图或者中性词-按I键,"接下来将进行第十部分测试。
请将你左手和右手的食指部分分别放在键盘的E键和I键上。
该部分流程与刚才的完全相同，规则同样为：
胖图 或 回避词 - 按E键
瘦图 或 中性词 - 按I键
请在保证正确率的情况下尽快对其进行分类。
如果你已明白规则，请按空格开始测试。
如果有任何疑问，请联系实验员。",pic/intro10.png,pic/anjianl10.png,pic/anjianr10.png,4,4,0,pic/do1.png,i,0.5225,0.261,space,2.319023125,None,i,1,0.852843083,None,0,9,9,9,0,4,4,0,322.646982,,,,,,,,,322.6423493,322.646982,323.146848,323.6271907,323.6271907,324.4808772,i,1,0.852843083,None,21,1,2025-09-18_09h51.11.945,IAT_block_loop1after,,2025.1.1,None,2025-09-18 09h51.27.788015 +0800
IAT_block910.xlsx,1,胖图或回避词-按E键,瘦图或者中性词-按I键,"接下来将进行第十部分测试。
请将你左手和右手的食指部分分别放在键盘的E键和I键上。
该部分流程与刚才的完全相同，规则同样为：
胖图 或 回避词 - 按E键
瘦图 或 中性词 - 按I键
请在保证正确率的情况下尽快对其进行分类。
如果你已明白规则，请按空格开始测试。
如果有任何疑问，请联系实验员。",pic/intro10.png,pic/anjianl10.png,pic/anjianr10.png,5,5,0,pic/do2.png,i,0.5225,0.261,space,2.319023125,None,i,1,0.480264541,None,0,9,9,9,0,5,5,1,324.5011058,,,,,,,,,324.4966975,324.5011058,324.9968802,325.4776435,325.4776435,325.9611643,i,1,0.480264541,None,21,1,2025-09-18_09h51.11.945,IAT_block_loop1after,,2025.1.1,None,2025-09-18 09h51.27.788015 +0800
IAT_block910.xlsx,1,胖图或回避词-按E键,瘦图或者中性词-按I键,"接下来将进行第十部分测试。
请将你左手和右手的食指部分分别放在键盘的E键和I键上。
该部分流程与刚才的完全相同，规则同样为：
胖图 或 回避词 - 按E键
瘦图 或 中性词 - 按I键
请在保证正确率的情况下尽快对其进行分类。
如果你已明白规则，请按空格开始测试。
如果有任何疑问，请联系实验员。",pic/intro10.png,pic/anjianl10.png,pic/anjianr10.png,6,6,0,pic/avoid2.png,e,0.5225,0.261,space,2.319023125,None,e,1,0.546123416,None,0,9,9,9,0,6,6,5,325.9822633,,,,,,,,,325.977911,325.9822633,326.4941837,326.9607626,326.9607626,327.5111423,e,1,0.546123416,None,21,1,2025-09-18_09h51.11.945,IAT_block_loop1after,,2025.1.1,None,2025-09-18 09h51.27.788015 +0800
IAT_block910.xlsx,1,胖图或回避词-按E键,瘦图或者中性词-按I键,"接下来将进行第十部分测试。
请将你左手和右手的食指部分分别放在键盘的E键和I键上。
该部分流程与刚才的完全相同，规则同样为：
胖图 或 回避词 - 按E键
瘦图 或 中性词 - 按I键
请在保证正确率的情况下尽快对其进行分类。
如果你已明白规则，请按空格开始测试。
如果有任何疑问，请联系实验员。",pic/intro10.png,pic/anjianl10.png,pic/anjianr10.png,7,7,0,pic/thin4.png,i,0.796,0.622,space,2.319023125,None,i,1,0.639897707,None,0,9,9,9,0,7,7,15,327.5376101,,,,,,,,,327.5334428,327.5376101,328.0301687,328.497902,328.497902,329.1442022,i,1,0.639897707,None,21,1,2025-09-18_09h51.11.945,IAT_block_loop1after,,2025.1.1,None,2025-09-18 09h51.27.788015 +0800
IAT_block910.xlsx,1,胖图或回避词-按E键,瘦图或者中性词-按I键,"接下来将进行第十部分测试。
请将你左手和右手的食指部分分别放在键盘的E键和I键上。
该部分流程与刚才的完全相同，规则同样为：
胖图 或 回避词 - 按E键
瘦图 或 中性词 - 按I键
请在保证正确率的情况下尽快对其进行分类。
如果你已明白规则，请按空格开始测试。
如果有任何疑问，请联系实验员。",pic/intro10.png,pic/anjianl10.png,pic/anjianr10.png,8,8,0,pic/avoid4.png,e,0.5225,0.261,space,2.319023125,None,e,1,0.673086583,None,0,9,9,9,0,8,8,7,329.1646328,,,,,,,,,329.1602183,329.1646328,329.6633832,330.1306795,330.1306795,330.8108634,e,1,0.673086583,None,21,1,2025-09-18_09h51.11.945,IAT_block_loop1after,,2025.1.1,None,2025-09-18 09h51.27.788015 +0800
IAT_block910.xlsx,1,胖图或回避词-按E键,瘦图或者中性词-按I键,"接下来将进行第十部分测试。
请将你左手和右手的食指部分分别放在键盘的E键和I键上。
该部分流程与刚才的完全相同，规则同样为：
胖图 或 回避词 - 按E键
瘦图 或 中性词 - 按I键
请在保证正确率的情况下尽快对其进行分类。
如果你已明白规则，请按空格开始测试。
如果有任何疑问，请联系实验员。",pic/intro10.png,pic/anjianl10.png,pic/anjianr10.png,9,9,0,pic/avoid3.png,e,0.5225,0.261,space,2.319023125,None,e,1,0.777906291,None,0,9,9,9,0,9,9,6,330.8337867,,,,,,,,,330.8293823,330.8337867,331.330149,331.8107579,331.8107579,332.5945271,e,1,0.777906291,None,21,1,2025-09-18_09h51.11.945,IAT_block_loop1after,,2025.1.1,None,2025-09-18 09h51.27.788015 +0800
IAT_block910.xlsx,1,胖图或回避词-按E键,瘦图或者中性词-按I键,"接下来将进行第十部分测试。
请将你左手和右手的食指部分分别放在键盘的E键和I键上。
该部分流程与刚才的完全相同，规则同样为：
胖图 或 回避词 - 按E键
瘦图 或 中性词 - 按I键
请在保证正确率的情况下尽快对其进行分类。
如果你已明白规则，请按空格开始测试。
如果有任何疑问，请联系实验员。",pic/intro10.png,pic/anjianl10.png,pic/anjianr10.png,10,10,0,pic/do4.png,i,0.5225,0.261,space,2.319023125,None,i,1,0.680095832,None,0,9,9,9,0,10,10,3,332.619466,,,,,,,,,332.6150568,332.619466,333.113527,333.5805845,333.5805845,334.2612305,i,1,0.680095832,None,21,1,2025-09-18_09h51.11.945,IAT_block_loop1after,,2025.1.1,None,2025-09-18 09h51.27.788015 +0800
IAT_block910.xlsx,1,胖图或回避词-按E键,瘦图或者中性词-按I键,"接下来将进行第十部分测试。
请将你左手和右手的食指部分分别放在键盘的E键和I键上。
该部分流程与刚才的完全相同，规则同样为：
胖图 或 回避词 - 按E键
瘦图 或 中性词 - 按I键
请在保证正确率的情况下尽快对其进行分类。
如果你已明白规则，请按空格开始测试。
如果有任何疑问，请联系实验员。",pic/intro10.png,pic/anjianl10.png,pic/anjianr10.png,11,11,0,pic/fat3.png,e,0.796,0.528,space,2.319023125,None,e,1,0.635974625,None,0,9,9,9,0,11,11,10,334.2809655,,,,,,,,,334.2768175,334.2809655,334.794001,335.2476469,335.2476469,335.8941439,e,1,0.635974625,None,21,1,2025-09-18_09h51.11.945,IAT_block_loop1after,,2025.1.1,None,2025-09-18 09h51.27.788015 +0800
IAT_block910.xlsx,1,胖图或回避词-按E键,瘦图或者中性词-按I键,"接下来将进行第十部分测试。
请将你左手和右手的食指部分分别放在键盘的E键和I键上。
该部分流程与刚才的完全相同，规则同样为：
胖图 或 回避词 - 按E键
瘦图 或 中性词 - 按I键
请在保证正确率的情况下尽快对其进行分类。
如果你已明白规则，请按空格开始测试。
如果有任何疑问，请联系实验员。",pic/intro10.png,pic/anjianl10.png,pic/anjianr10.png,12,12,0,pic/avoid1.png,e,0.5225,0.261,space,2.319023125,None,e,1,0.868450624,None,0,9,9,9,0,12,12,4,335.9147532,,,,,,,,,335.910362,335.9147532,336.4133412,336.8940391,336.8940391,337.7778909,e,1,0.868450624,None,21,1,2025-09-18_09h51.11.945,IAT_block_loop1after,,2025.1.1,None,2025-09-18 09h51.27.788015 +0800
IAT_block910.xlsx,1,胖图或回避词-按E键,瘦图或者中性词-按I键,"接下来将进行第十部分测试。
请将你左手和右手的食指部分分别放在键盘的E键和I键上。
该部分流程与刚才的完全相同，规则同样为：
胖图 或 回避词 - 按E键
瘦图 或 中性词 - 按I键
请在保证正确率的情况下尽快对其进行分类。
如果你已明白规则，请按空格开始测试。
如果有任何疑问，请联系实验员。",pic/intro10.png,pic/anjianl10.png,pic/anjianr10.png,13,13,0,pic/thin3.png,i,0.796,0.622,space,2.319023125,None,i,1,0.538588624,None,0,9,9,9,0,13,13,14,337.8043172,,,,,,,,,337.8001308,337.8043172,338.2966095,338.7772437,338.7772437,339.3274806,i,1,0.538588624,None,21,1,2025-09-18_09h51.11.945,IAT_block_loop1after,,2025.1.1,None,2025-09-18 09h51.27.788015 +0800
IAT_block910.xlsx,1,胖图或回避词-按E键,瘦图或者中性词-按I键,"接下来将进行第十部分测试。
请将你左手和右手的食指部分分别放在键盘的E键和I键上。
该部分流程与刚才的完全相同，规则同样为：
胖图 或 回避词 - 按E键
瘦图 或 中性词 - 按I键
请在保证正确率的情况下尽快对其进行分类。
如果你已明白规则，请按空格开始测试。
如果有任何疑问，请联系实验员。",pic/intro10.png,pic/anjianl10.png,pic/anjianr10.png,14,14,0,pic/fat4.png,e,0.796,0.528,space,2.319023125,None,e,1,0.524015958,None,0,9,9,9,0,14,14,11,339.3526816,,,,,,,,,339.3484994,339.3526816,339.8466199,340.3144297,340.3144297,340.8441251,e,1,0.524015958,None,21,1,2025-09-18_09h51.11.945,IAT_block_loop1after,,2025.1.1,None,2025-09-18 09h51.27.788015 +0800
IAT_block910.xlsx,1,胖图或回避词-按E键,瘦图或者中性词-按I键,"接下来将进行第十部分测试。
请将你左手和右手的食指部分分别放在键盘的E键和I键上。
该部分流程与刚才的完全相同，规则同样为：
胖图 或 回避词 - 按E键
瘦图 或 中性词 - 按I键
请在保证正确率的情况下尽快对其进行分类。
如果你已明白规则，请按空格开始测试。
如果有任何疑问，请联系实验员。",pic/intro10.png,pic/anjianl10.png,pic/anjianr10.png,15,15,0,pic/fat1.png,e,0.796,0.528,space,2.319023125,None,e,1,0.472400416,None,0,9,9,9,0,15,15,8,340.8683551,,,,,,,,,340.8641587,340.8683551,341.3634044,341.843953,341.843953,342.3274873,e,1,0.472400416,None,21,1,2025-09-18_09h51.11.945,IAT_block_loop1after,,2025.1.1,None,2025-09-18 09h51.27.788015 +0800
IAT_block910.xlsx,1,胖图或回避词-按E键,瘦图或者中性词-按I键,"接下来将进行第十部分测试。
请将你左手和右手的食指部分分别放在键盘的E键和I键上。
该部分流程与刚才的完全相同，规则同样为：
胖图 或 回避词 - 按E键
瘦图 或 中性词 - 按I键
请在保证正确率的情况下尽快对其进行分类。
如果你已明白规则，请按空格开始测试。
如果有任何疑问，请联系实验员。",pic/intro10.png,pic/anjianl10.png,pic/anjianr10.png,9,9,0,,,,,space,2.319023125,None,,,,,0,9,9,9,,,,,,,,,,,,,,,,,,,,,,,,21,1,2025-09-18_09h51.11.945,IAT_block_loop1after,,2025.1.1,None,2025-09-18 09h51.27.788015 +0800
IAT_block11.xlsx,1,中性词-按E键,回避词-按I键,"接下来将进行第十一部分测试。
请将你左手和右手的食指部分分别放在键盘的E键和I键上。
注意此时依然是对回避词和中性词进行分类，但是按键进行了对调
规则为：
中性词 - 按E键
回避词 - 按I键
请在保证正确率的情况下尽快对其进行分类。
如果你已明白规则，请按空格开始测试。
如果有任何疑问，请联系实验员。",pic/intro11.png,pic/anjianl11.png,pic/anjianr11.png,0,0,0,pic/do3.png,e,0.5225,0.261,space,5.754752666,None,e,1,0.621177749,None,0,10,10,10,0,0,0,14,351.1160815,,342.6015186,342.6081502,345.3272893,351.0941003,space,5.754752666,None,351.1116326,351.1160815,351.6133537,352.0938241,352.0938241,352.7274296,e,1,0.621177749,None,21,1,2025-09-18_09h51.11.945,IAT_block_loop1after,,2025.1.1,None,2025-09-18 09h51.27.788015 +0800
IAT_block11.xlsx,1,中性词-按E键,回避词-按I键,"接下来将进行第十一部分测试。
请将你左手和右手的食指部分分别放在键盘的E键和I键上。
注意此时依然是对回避词和中性词进行分类，但是按键进行了对调
规则为：
中性词 - 按E键
回避词 - 按I键
请在保证正确率的情况下尽快对其进行分类。
如果你已明白规则，请按空格开始测试。
如果有任何疑问，请联系实验员。",pic/intro11.png,pic/anjianl11.png,pic/anjianr11.png,1,1,0,pic/avoid1.png,i,0.5225,0.261,space,5.754752666,None,i,1,0.504710749,None,0,10,10,10,0,1,1,0,352.7460924,,,,,,,,,352.7416997,352.7460924,353.2437776,353.7272732,353.7272732,354.244034,i,1,0.504710749,None,21,1,2025-09-18_09h51.11.945,IAT_block_loop1after,,2025.1.1,None,2025-09-18 09h51.27.788015 +0800
IAT_block11.xlsx,1,中性词-按E键,回避词-按I键,"接下来将进行第十一部分测试。
请将你左手和右手的食指部分分别放在键盘的E键和I键上。
注意此时依然是对回避词和中性词进行分类，但是按键进行了对调
规则为：
中性词 - 按E键
回避词 - 按I键
请在保证正确率的情况下尽快对其进行分类。
如果你已明白规则，请按空格开始测试。
如果有任何疑问，请联系实验员。",pic/intro11.png,pic/anjianl11.png,pic/anjianr11.png,2,2,0,pic/avoid2.png,i,0.5225,0.261,space,5.754752666,None,i,1,1.300535916,None,0,10,10,10,0,2,2,1,354.2628094,,,,,,,,,354.258469,354.2628094,354.760524,355.230336,355.230336,356.5444527,i,1,1.300535916,None,21,1,2025-09-18_09h51.11.945,IAT_block_loop1after,,2025.1.1,None,2025-09-18 09h51.27.788015 +0800
IAT_block11.xlsx,1,中性词-按E键,回避词-按I键,"接下来将进行第十一部分测试。
请将你左手和右手的食指部分分别放在键盘的E键和I键上。
注意此时依然是对回避词和中性词进行分类，但是按键进行了对调
规则为：
中性词 - 按E键
回避词 - 按I键
请在保证正确率的情况下尽快对其进行分类。
如果你已明白规则，请按空格开始测试。
如果有任何疑问，请联系实验员。",pic/intro11.png,pic/anjianl11.png,pic/anjianr11.png,3,3,0,pic/avoid2.png,i,0.5225,0.261,space,5.754752666,None,i,1,0.587458833,None,0,10,10,10,0,3,3,9,356.564585,,,,,,,,,356.5601991,356.564585,357.0633675,357.5303987,357.5303987,358.1273875,i,1,0.587458833,None,21,1,2025-09-18_09h51.11.945,IAT_block_loop1after,,2025.1.1,None,2025-09-18 09h51.27.788015 +0800
IAT_block11.xlsx,1,中性词-按E键,回避词-按I键,"接下来将进行第十一部分测试。
请将你左手和右手的食指部分分别放在键盘的E键和I键上。
注意此时依然是对回避词和中性词进行分类，但是按键进行了对调
规则为：
中性词 - 按E键
回避词 - 按I键
请在保证正确率的情况下尽快对其进行分类。
如果你已明白规则，请按空格开始测试。
如果有任何疑问，请联系实验员。",pic/intro11.png,pic/anjianl11.png,pic/anjianr11.png,4,4,0,pic/do1.png,e,0.5225,0.261,space,5.754752666,None,e,1,0.750966499,None,0,10,10,10,0,4,4,12,358.1492051,,,,,,,,,358.1448033,358.1492051,358.646632,359.113881,359.113881,359.8775043,e,1,0.750966499,None,21,1,2025-09-18_09h51.11.945,IAT_block_loop1after,,2025.1.1,None,2025-09-18 09h51.27.788015 +0800
IAT_block11.xlsx,1,中性词-按E键,回避词-按I键,"接下来将进行第十一部分测试。
请将你左手和右手的食指部分分别放在键盘的E键和I键上。
注意此时依然是对回避词和中性词进行分类，但是按键进行了对调
规则为：
中性词 - 按E键
回避词 - 按I键
请在保证正确率的情况下尽快对其进行分类。
如果你已明白规则，请按空格开始测试。
如果有任何疑问，请联系实验员。",pic/intro11.png,pic/anjianl11.png,pic/anjianr11.png,5,5,0,pic/avoid4.png,i,0.5225,0.261,space,5.754752666,None,i,1,0.546036916,None,0,10,10,10,0,5,5,11,359.8966742,,,,,,,,,359.8922901,359.8966742,360.410596,360.8637423,360.8637423,361.4112661,i,1,0.546036916,None,21,1,2025-09-18_09h51.11.945,IAT_block_loop1after,,2025.1.1,None,2025-09-18 09h51.27.788015 +0800
IAT_block11.xlsx,1,中性词-按E键,回避词-按I键,"接下来将进行第十一部分测试。
请将你左手和右手的食指部分分别放在键盘的E键和I键上。
注意此时依然是对回避词和中性词进行分类，但是按键进行了对调
规则为：
中性词 - 按E键
回避词 - 按I键
请在保证正确率的情况下尽快对其进行分类。
如果你已明白规则，请按空格开始测试。
如果有任何疑问，请联系实验员。",pic/intro11.png,pic/anjianl11.png,pic/anjianr11.png,6,6,0,pic/do2.png,e,0.5225,0.261,space,5.754752666,None,e,1,0.796138833,None,0,10,10,10,0,6,6,13,361.4290103,,,,,,,,,361.4241032,361.4290103,361.9272528,362.410549,362.410549,363.2109881,e,1,0.796138833,None,21,1,2025-09-18_09h51.11.945,IAT_block_loop1after,,2025.1.1,None,2025-09-18 09h51.27.788015 +0800
IAT_block11.xlsx,1,中性词-按E键,回避词-按I键,"接下来将进行第十一部分测试。
请将你左手和右手的食指部分分别放在键盘的E键和I键上。
注意此时依然是对回避词和中性词进行分类，但是按键进行了对调
规则为：
中性词 - 按E键
回避词 - 按I键
请在保证正确率的情况下尽快对其进行分类。
如果你已明白规则，请按空格开始测试。
如果有任何疑问，请联系实验员。",pic/intro11.png,pic/anjianl11.png,pic/anjianr11.png,7,7,0,pic/avoid4.png,i,0.5225,0.261,space,5.754752666,None,i,1,0.610662666,None,0,10,10,10,0,7,7,3,363.2307941,,,,,,,,,363.2264524,363.2307941,363.7437702,364.1970215,364.1970215,364.81092,i,1,0.610662666,None,21,1,2025-09-18_09h51.11.945,IAT_block_loop1after,,2025.1.1,None,2025-09-18 09h51.27.788015 +0800
IAT_block11.xlsx,1,中性词-按E键,回避词-按I键,"接下来将进行第十一部分测试。
请将你左手和右手的食指部分分别放在键盘的E键和I键上。
注意此时依然是对回避词和中性词进行分类，但是按键进行了对调
规则为：
中性词 - 按E键
回避词 - 按I键
请在保证正确率的情况下尽快对其进行分类。
如果你已明白规则，请按空格开始测试。
如果有任何疑问，请联系实验员。",pic/intro11.png,pic/anjianl11.png,pic/anjianr11.png,8,8,0,pic/do1.png,e,0.5225,0.261,space,5.754752666,None,e,1,0.537845124,None,0,10,10,10,0,8,8,4,364.8308863,,,,,,,,,364.826591,364.8308863,365.3299035,365.7968081,365.7968081,366.3440697,e,1,0.537845124,None,21,1,2025-09-18_09h51.11.945,IAT_block_loop1after,,2025.1.1,None,2025-09-18 09h51.27.788015 +0800
IAT_block11.xlsx,1,中性词-按E键,回避词-按I键,"接下来将进行第十一部分测试。
请将你左手和右手的食指部分分别放在键盘的E键和I键上。
注意此时依然是对回避词和中性词进行分类，但是按键进行了对调
规则为：
中性词 - 按E键
回避词 - 按I键
请在保证正确率的情况下尽快对其进行分类。
如果你已明白规则，请按空格开始测试。
如果有任何疑问，请联系实验员。",pic/intro11.png,pic/anjianl11.png,pic/anjianr11.png,9,9,0,pic/do3.png,e,0.5225,0.261,space,5.754752666,None,e,1,0.563119124,None,0,10,10,10,0,9,9,6,366.3634203,,,,,,,,,366.3590717,366.3634203,366.860423,367.3304015,367.3304015,367.894419,e,1,0.563119124,None,21,1,2025-09-18_09h51.11.945,IAT_block_loop1after,,2025.1.1,None,2025-09-18 09h51.27.788015 +0800
IAT_block11.xlsx,1,中性词-按E键,回避词-按I键,"接下来将进行第十一部分测试。
请将你左手和右手的食指部分分别放在键盘的E键和I键上。
注意此时依然是对回避词和中性词进行分类，但是按键进行了对调
规则为：
中性词 - 按E键
回避词 - 按I键
请在保证正确率的情况下尽快对其进行分类。
如果你已明白规则，请按空格开始测试。
如果有任何疑问，请联系实验员。",pic/intro11.png,pic/anjianl11.png,pic/anjianr11.png,10,10,0,pic/do2.png,e,0.5225,0.261,space,5.754752666,None,e,1,0.482018916,None,0,10,10,10,0,10,10,5,367.9147537,,,,,,,,,367.9103391,367.9147537,368.4271042,368.893568,368.893568,369.3777915,e,1,0.482018916,None,21,1,2025-09-18_09h51.11.945,IAT_block_loop1after,,2025.1.1,None,2025-09-18 09h51.27.788015 +0800
IAT_block11.xlsx,1,中性词-按E键,回避词-按I键,"接下来将进行第十一部分测试。
请将你左手和右手的食指部分分别放在键盘的E键和I键上。
注意此时依然是对回避词和中性词进行分类，但是按键进行了对调
规则为：
中性词 - 按E键
回避词 - 按I键
请在保证正确率的情况下尽快对其进行分类。
如果你已明白规则，请按空格开始测试。
如果有任何疑问，请联系实验员。",pic/intro11.png,pic/anjianl11.png,pic/anjianr11.png,11,11,0,pic/avoid3.png,i,0.5225,0.261,space,5.754752666,None,i,1,0.543289166,None,0,10,10,10,0,11,11,10,369.396975,,,,,,,,,369.3927274,369.396975,369.8938557,370.3771709,370.3771709,370.9273135,i,1,0.543289166,None,21,1,2025-09-18_09h51.11.945,IAT_block_loop1after,,2025.1.1,None,2025-09-18 09h51.27.788015 +0800
IAT_block11.xlsx,1,中性词-按E键,回避词-按I键,"接下来将进行第十一部分测试。
请将你左手和右手的食指部分分别放在键盘的E键和I键上。
注意此时依然是对回避词和中性词进行分类，但是按键进行了对调
规则为：
中性词 - 按E键
回避词 - 按I键
请在保证正确率的情况下尽快对其进行分类。
如果你已明白规则，请按空格开始测试。
如果有任何疑问，请联系实验员。",pic/intro11.png,pic/anjianl11.png,pic/anjianr11.png,12,12,0,pic/avoid1.png,i,0.5225,0.261,space,5.754752666,None,i,1,0.591740707,None,0,10,10,10,0,12,12,8,370.9474939,,,,,,,,,370.9431457,370.9474939,371.4437565,371.9136304,371.9136304,372.5106137,i,1,0.591740707,None,21,1,2025-09-18_09h51.11.945,IAT_block_loop1after,,2025.1.1,None,2025-09-18 09h51.27.788015 +0800
IAT_block11.xlsx,1,中性词-按E键,回避词-按I键,"接下来将进行第十一部分测试。
请将你左手和右手的食指部分分别放在键盘的E键和I键上。
注意此时依然是对回避词和中性词进行分类，但是按键进行了对调
规则为：
中性词 - 按E键
回避词 - 按I键
请在保证正确率的情况下尽快对其进行分类。
如果你已明白规则，请按空格开始测试。
如果有任何疑问，请联系实验员。",pic/intro11.png,pic/anjianl11.png,pic/anjianr11.png,13,13,0,pic/do4.png,e,0.5225,0.261,space,5.754752666,None,e,1,0.897532624,None,0,10,10,10,0,13,13,15,372.5300615,,,,,,,,,372.5256965,372.5300615,373.026873,373.49702,373.49702,374.3982929,e,1,0.897532624,None,21,1,2025-09-18_09h51.11.945,IAT_block_loop1after,,2025.1.1,None,2025-09-18 09h51.27.788015 +0800
IAT_block11.xlsx,1,中性词-按E键,回避词-按I键,"接下来将进行第十一部分测试。
请将你左手和右手的食指部分分别放在键盘的E键和I键上。
注意此时依然是对回避词和中性词进行分类，但是按键进行了对调
规则为：
中性词 - 按E键
回避词 - 按I键
请在保证正确率的情况下尽快对其进行分类。
如果你已明白规则，请按空格开始测试。
如果有任何疑问，请联系实验员。",pic/intro11.png,pic/anjianl11.png,pic/anjianr11.png,14,14,0,pic/avoid3.png,i,0.5225,0.261,space,5.754752666,None,i,1,0.714267708,None,0,10,10,10,0,14,14,2,374.417433,,,,,,,,,374.4124231,374.417433,374.9187824,375.3970364,375.3970364,376.1274385,i,1,0.714267708,None,21,1,2025-09-18_09h51.11.945,IAT_block_loop1after,,2025.1.1,None,2025-09-18 09h51.27.788015 +0800
IAT_block11.xlsx,1,中性词-按E键,回避词-按I键,"接下来将进行第十一部分测试。
请将你左手和右手的食指部分分别放在键盘的E键和I键上。
注意此时依然是对回避词和中性词进行分类，但是按键进行了对调
规则为：
中性词 - 按E键
回避词 - 按I键
请在保证正确率的情况下尽快对其进行分类。
如果你已明白规则，请按空格开始测试。
如果有任何疑问，请联系实验员。",pic/intro11.png,pic/anjianl11.png,pic/anjianr11.png,15,15,0,pic/do4.png,e,0.5225,0.261,space,5.754752666,None,e,1,0.508078124,None,0,10,10,10,0,15,15,7,376.1493699,,,,,,,,,376.1431717,376.1493699,376.6435555,377.1271574,377.1271574,377.643936,e,1,0.508078124,None,21,1,2025-09-18_09h51.11.945,IAT_block_loop1after,,2025.1.1,None,2025-09-18 09h51.27.788015 +0800
IAT_block11.xlsx,1,中性词-按E键,回避词-按I键,"接下来将进行第十一部分测试。
请将你左手和右手的食指部分分别放在键盘的E键和I键上。
注意此时依然是对回避词和中性词进行分类，但是按键进行了对调
规则为：
中性词 - 按E键
回避词 - 按I键
请在保证正确率的情况下尽快对其进行分类。
如果你已明白规则，请按空格开始测试。
如果有任何疑问，请联系实验员。",pic/intro11.png,pic/anjianl11.png,pic/anjianr11.png,10,10,0,,,,,space,5.754752666,None,,,,,0,10,10,10,,,,,,,,,,,,,,,,,,,,,,,,21,1,2025-09-18_09h51.11.945,IAT_block_loop1after,,2025.1.1,None,2025-09-18 09h51.27.788015 +0800
IAT_block1213.xlsx,1,胖图或中性词-按E键,瘦图或者回避词-按I键,"接下来将进行第十二部分测试。
请将你左手和右手的食指部分分别放在键盘的E键和I键上。
该部分的规则为：（注意中性词和回避词的规则跟刚才一样）
胖图 或 中性词 - 按E键
瘦图 或 回避词 - 按I键
请在保证正确率的情况下尽快对其进行分类。
如果你已明白规则，请按空格开始测试。
如果有任何疑问，请联系实验员。",pic/intro12.png,pic/anjianl12.png,pic/anjianr12.png,0,0,0,pic/avoid2.png,i,0.5225,0.261,space,4.328812291,None,i,1,0.8405085,None,0,11,11,11,0,0,0,5,384.9857384,,377.8687455,377.876646,380.6311723,384.9606935,space,4.328812291,None,384.9812769,384.9857384,385.4797732,385.9604497,385.9604497,386.8105037,i,1,0.8405085,None,21,1,2025-09-18_09h51.11.945,IAT_block_loop1after,,2025.1.1,None,2025-09-18 09h51.27.788015 +0800
IAT_block1213.xlsx,1,胖图或中性词-按E键,瘦图或者回避词-按I键,"接下来将进行第十二部分测试。
请将你左手和右手的食指部分分别放在键盘的E键和I键上。
该部分的规则为：（注意中性词和回避词的规则跟刚才一样）
胖图 或 中性词 - 按E键
瘦图 或 回避词 - 按I键
请在保证正确率的情况下尽快对其进行分类。
如果你已明白规则，请按空格开始测试。
如果有任何疑问，请联系实验员。",pic/intro12.png,pic/anjianl12.png,pic/anjianr12.png,1,1,0,pic/fat2.png,e,0.796,0.528,space,4.328812291,None,e,1,0.602753916,None,0,11,11,11,0,1,1,9,386.8363791,,,,,,,,,386.8322551,386.8363791,387.3301951,387.8103822,387.8103822,388.4271357,e,1,0.602753916,None,21,1,2025-09-18_09h51.11.945,IAT_block_loop1after,,2025.1.1,None,2025-09-18 09h51.27.788015 +0800
IAT_block1213.xlsx,1,胖图或中性词-按E键,瘦图或者回避词-按I键,"接下来将进行第十二部分测试。
请将你左手和右手的食指部分分别放在键盘的E键和I键上。
该部分的规则为：（注意中性词和回避词的规则跟刚才一样）
胖图 或 中性词 - 按E键
瘦图 或 回避词 - 按I键
请在保证正确率的情况下尽快对其进行分类。
如果你已明白规则，请按空格开始测试。
如果有任何疑问，请联系实验员。",pic/intro12.png,pic/anjianl12.png,pic/anjianr12.png,2,2,0,pic/thin3.png,i,0.796,0.622,space,4.328812291,None,i,1,0.7858845,None,0,11,11,11,0,2,2,14,388.4529787,,,,,,,,,388.448771,388.4529787,388.9465166,389.4269263,389.4269263,390.2146362,i,1,0.7858845,None,21,1,2025-09-18_09h51.11.945,IAT_block_loop1after,,2025.1.1,None,2025-09-18 09h51.27.788015 +0800
IAT_block1213.xlsx,1,胖图或中性词-按E键,瘦图或者回避词-按I键,"接下来将进行第十二部分测试。
请将你左手和右手的食指部分分别放在键盘的E键和I键上。
该部分的规则为：（注意中性词和回避词的规则跟刚才一样）
胖图 或 中性词 - 按E键
瘦图 或 回避词 - 按I键
请在保证正确率的情况下尽快对其进行分类。
如果你已明白规则，请按空格开始测试。
如果有任何疑问，请联系实验员。",pic/intro12.png,pic/anjianl12.png,pic/anjianr12.png,3,3,0,pic/thin4.png,i,0.796,0.622,space,4.328812291,None,i,1,0.675015916,None,0,11,11,11,0,3,3,15,390.2412842,,,,,,,,,390.2370358,390.2412842,390.7432569,391.2267042,391.2267042,391.9104914,i,1,0.675015916,None,21,1,2025-09-18_09h51.11.945,IAT_block_loop1after,,2025.1.1,None,2025-09-18 09h51.27.788015 +0800
IAT_block1213.xlsx,1,胖图或中性词-按E键,瘦图或者回避词-按I键,"接下来将进行第十二部分测试。
请将你左手和右手的食指部分分别放在键盘的E键和I键上。
该部分的规则为：（注意中性词和回避词的规则跟刚才一样）
胖图 或 中性词 - 按E键
瘦图 或 回避词 - 按I键
请在保证正确率的情况下尽快对其进行分类。
如果你已明白规则，请按空格开始测试。
如果有任何疑问，请联系实验员。",pic/intro12.png,pic/anjianl12.png,pic/anjianr12.png,4,4,0,pic/do1.png,e,0.5225,0.261,space,4.328812291,None,e,1,1.192372541,None,0,11,11,11,0,4,4,0,391.9298688,,,,,,,,,391.9254946,391.9298688,392.4297269,392.9102621,392.9102621,394.1104625,e,1,1.192372541,None,21,1,2025-09-18_09h51.11.945,IAT_block_loop1after,,2025.1.1,None,2025-09-18 09h51.27.788015 +0800
IAT_block1213.xlsx,1,胖图或中性词-按E键,瘦图或者回避词-按I键,"接下来将进行第十二部分测试。
请将你左手和右手的食指部分分别放在键盘的E键和I键上。
该部分的规则为：（注意中性词和回避词的规则跟刚才一样）
胖图 或 中性词 - 按E键
瘦图 或 回避词 - 按I键
请在保证正确率的情况下尽快对其进行分类。
如果你已明白规则，请按空格开始测试。
如果有任何疑问，请联系实验员。",pic/intro12.png,pic/anjianl12.png,pic/anjianr12.png,5,5,0,pic/do4.png,e,0.5225,0.261,space,4.328812291,None,e,1,0.391764541,None,0,11,11,11,0,5,5,3,394.1294174,,,,,,,,,394.1251508,394.1294174,394.6297188,395.0968562,395.0968562,395.4941392,e,1,0.391764541,None,21,1,2025-09-18_09h51.11.945,IAT_block_loop1after,,2025.1.1,None,2025-09-18 09h51.27.788015 +0800
IAT_block1213.xlsx,1,胖图或中性词-按E键,瘦图或者回避词-按I键,"接下来将进行第十二部分测试。
请将你左手和右手的食指部分分别放在键盘的E键和I键上。
该部分的规则为：（注意中性词和回避词的规则跟刚才一样）
胖图 或 中性词 - 按E键
瘦图 或 回避词 - 按I键
请在保证正确率的情况下尽快对其进行分类。
如果你已明白规则，请按空格开始测试。
如果有任何疑问，请联系实验员。",pic/intro12.png,pic/anjianl12.png,pic/anjianr12.png,6,6,0,pic/avoid3.png,i,0.5225,0.261,space,4.328812291,None,i,1,0.641447625,None,0,11,11,11,0,6,6,6,395.5165001,,,,,,,,,395.5120052,395.5165001,396.0130547,396.4800976,396.4800976,397.1276016,i,1,0.641447625,None,21,1,2025-09-18_09h51.11.945,IAT_block_loop1after,,2025.1.1,None,2025-09-18 09h51.27.788015 +0800
IAT_block1213.xlsx,1,胖图或中性词-按E键,瘦图或者回避词-按I键,"接下来将进行第十二部分测试。
请将你左手和右手的食指部分分别放在键盘的E键和I键上。
该部分的规则为：（注意中性词和回避词的规则跟刚才一样）
胖图 或 中性词 - 按E键
瘦图 或 回避词 - 按I键
请在保证正确率的情况下尽快对其进行分类。
如果你已明白规则，请按空格开始测试。
如果有任何疑问，请联系实验员。",pic/intro12.png,pic/anjianl12.png,pic/anjianr12.png,7,7,0,pic/avoid1.png,i,0.5225,0.261,space,4.328812291,None,i,1,1.177136416,None,0,11,11,11,0,7,7,4,397.146533,,,,,,,,,397.1420192,397.146533,397.6435589,398.1134073,398.1134073,399.2939548,i,1,1.177136416,None,21,1,2025-09-18_09h51.11.945,IAT_block_loop1after,,2025.1.1,None,2025-09-18 09h51.27.788015 +0800
IAT_block1213.xlsx,1,胖图或中性词-按E键,瘦图或者回避词-按I键,"接下来将进行第十二部分测试。
请将你左手和右手的食指部分分别放在键盘的E键和I键上。
该部分的规则为：（注意中性词和回避词的规则跟刚才一样）
胖图 或 中性词 - 按E键
瘦图 或 回避词 - 按I键
请在保证正确率的情况下尽快对其进行分类。
如果你已明白规则，请按空格开始测试。
如果有任何疑问，请联系实验员。",pic/intro12.png,pic/anjianl12.png,pic/anjianr12.png,8,8,0,pic/fat1.png,e,0.796,0.528,space,4.328812291,None,e,1,0.830791499,None,0,11,11,11,0,8,8,8,399.315318,,,,,,,,,399.311126,399.315318,399.826995,400.2805982,400.2805982,401.1144518,e,1,0.830791499,None,21,1,2025-09-18_09h51.11.945,IAT_block_loop1after,,2025.1.1,None,2025-09-18 09h51.27.788015 +0800
IAT_block1213.xlsx,1,胖图或中性词-按E键,瘦图或者回避词-按I键,"接下来将进行第十二部分测试。
请将你左手和右手的食指部分分别放在键盘的E键和I键上。
该部分的规则为：（注意中性词和回避词的规则跟刚才一样）
胖图 或 中性词 - 按E键
瘦图 或 回避词 - 按I键
请在保证正确率的情况下尽快对其进行分类。
如果你已明白规则，请按空格开始测试。
如果有任何疑问，请联系实验员。",pic/intro12.png,pic/anjianl12.png,pic/anjianr12.png,9,9,0,pic/thin1.png,i,0.796,0.488,space,4.328812291,None,i,1,0.580676166,None,0,11,11,11,0,9,9,12,401.1383853,,,,,,,,,401.1340938,401.1383853,401.6435774,402.1267285,402.1267285,402.7106824,i,1,0.580676166,None,21,1,2025-09-18_09h51.11.945,IAT_block_loop1after,,2025.1.1,None,2025-09-18 09h51.27.788015 +0800
IAT_block1213.xlsx,1,胖图或中性词-按E键,瘦图或者回避词-按I键,"接下来将进行第十二部分测试。
请将你左手和右手的食指部分分别放在键盘的E键和I键上。
该部分的规则为：（注意中性词和回避词的规则跟刚才一样）
胖图 或 中性词 - 按E键
瘦图 或 回避词 - 按I键
请在保证正确率的情况下尽快对其进行分类。
如果你已明白规则，请按空格开始测试。
